t,lat,lon,alt,vx,vy,vz,ax,ay,az,yaw,mode,ledr,ledg,ledb
10.0,35.72544131530732,51.27590856271033,1370.001833224669,6.915489123571107e-05,-2.28338043939399e-05,0.0,1.705322352513864e-12,1.1368618720031092e-12,0.0,345.0,70.0,0.0,255.0,0.0
10.05,35.72544476887272,51.27590743469843,1370.0018330728635,6.915489132097719e-05,-2.2833804337096808e-05,0.0,2.842269605438097e-13,5.684309360015627e-13,0.0,344.99119565217393,70.0,0.0,255.0,0.0
10.100000000000001,35.725448222439816,51.27590630668733,1370.001832923852,6.915489126413377e-05,-2.2833804337096808e-05,0.0,0.0,-1.1368683772161603e-12,0.0,344.9823913043478,70.0,0.0,255.0,0.0
10.150000000000002,35.72545167600863,51.275905178677014,1370.0018327720463,6.915489132097719e-05,-2.2833804450783646e-05,0.0,5.684341886080801e-13,0.0,0.0,344.97358695652173,70.0,0.0,255.0,0.0
10.200000000000003,35.725455129579174,51.275904050667485,1370.0018326174468,6.915489132097719e-05,-2.2833804337096808e-05,0.0,0.0,2.2737367544323206e-12,0.0,344.96478260869566,70.0,0.0,255.0,0.0
10.250000000000004,35.725458583151415,51.27590292265875,1370.0018324693665,6.915489132097719e-05,-2.283380422340997e-05,0.0,0.0,0.0,0.0,344.9559782608696,70.0,0.0,255.0,0.0
10.300000000000004,35.72546203672537,51.2759017946508,1370.001832317561,6.915489132097719e-05,-2.2833804337096808e-05,0.0,-5.684341886080801e-13,-1.1368683772161603e-12,0.0,344.94717391304346,70.0,0.0,255.0,0.0
10.350000000000005,35.72546549030104,51.27590066664362,1370.0018321657553,6.915489126413377e-05,-2.2833804337096808e-05,0.0,0.0,0.0,0.0,344.9383695652174,70.0,0.0,255.0,0.0
10.400000000000006,35.72546894387843,51.27589953863725,1370.0018320139498,6.915489132097719e-05,-2.2833804337096808e-05,0.0,5.684341886080801e-13,-1.1368683772161603e-12,0.0,344.9295652173913,70.0,0.0,255.0,0.0
10.450000000000006,35.72547239745753,51.27589841063165,1370.0018318612128,6.915489132097719e-05,-2.2833804450783646e-05,0.0,-5.684341886080801e-13,0.0,0.0,344.92076086956524,70.0,0.0,255.0,0.0
10.500000000000007,35.72547585103836,51.27589728262685,1370.0018317103386,6.915489126413377e-05,-2.2833804337096808e-05,0.0,0.0,1.1368683772161603e-12,0.0,344.9119565217391,70.0,0.0,255.0,0.0
10.550000000000008,35.7254793046209,51.27589615462283,1370.0018315576017,6.915489132097719e-05,-2.2833804337096808e-05,0.0,5.684341886080801e-13,0.0,0.0,344.90315217391304,70.0,0.0,255.0,0.0
10.600000000000009,35.72548275820514,51.275895026619594,1370.001831405796,6.915489132097719e-05,-2.2833804337096808e-05,0.0,0.0,0.0,0.0,344.89434782608697,70.0,0.0,255.0,0.0
10.65000000000001,35.725486211791114,51.275893898617134,1370.0018312521279,6.915489132097719e-05,-2.2833804337096808e-05,0.0,0.0,0.0,0.0,344.88554347826084,70.0,0.0,255.0,0.0
10.70000000000001,35.72548966537879,51.27589277061548,1370.0018311003223,6.915489132097719e-05,-2.2833804337096808e-05,0.0,-5.684341886080801e-13,0.0,0.0,344.87673913043477,70.0,0.0,255.0,0.0
10.75000000000001,35.72549311896818,51.275891642614596,1370.0018309475854,6.915489126413377e-05,-2.2833804337096808e-05,0.0,0.0,0.0,0.0,344.8679347826087,70.0,0.0,255.0,0.0
10.800000000000011,35.7254965725593,51.275890514614495,1370.0018307939172,6.915489132097719e-05,-2.2833804337096808e-05,0.0,5.684341886080801e-13,0.0,0.0,344.8591304347826,70.0,0.0,255.0,0.0
10.850000000000012,35.72550002615213,51.27588938661519,1370.0018306411803,6.915489132097719e-05,-2.2833804337096808e-05,0.0,-5.684341886080801e-13,-1.1368683772161603e-12,0.0,344.8503260869565,70.0,0.0,255.0,0.0
10.900000000000013,35.72550347974667,51.275888258616654,1370.001830487512,6.915489126413377e-05,-2.2833804450783646e-05,0.0,0.0,0.0,0.0,344.8415217391304,70.0,0.0,255.0,0.0
10.950000000000014,35.725506933342935,51.275887130618905,1370.0018303329125,6.915489132097719e-05,-2.2833804337096808e-05,0.0,5.684341886080801e-13,1.1368683772161603e-12,0.0,344.83271739130436,70.0,0.0,255.0,0.0
11.000000000000014,35.72551038694091,51.275886002621945,1370.001830181107,6.915489132097719e-05,-2.2833804337096808e-05,0.0,0.0,0.0,0.0,344.8239130434783,70.0,0.0,255.0,0.0
11.050000000000015,35.7255138405406,51.27588487462577,1370.0018300265074,6.915489132097719e-05,-2.2833804337096808e-05,0.0,0.0,0.0,0.0,344.81510869565216,70.0,0.0,255.0,0.0
11.100000000000016,35.72551729414201,51.27588374663036,1370.0018298719078,6.915489132097719e-05,-2.2833804337096808e-05,0.0,-5.684341886080801e-13,0.0,0.0,344.8063043478261,70.0,0.0,255.0,0.0
11.150000000000016,35.725520747745136,51.27588261863574,1370.0018297173083,6.915489126413377e-05,-2.2833804337096808e-05,0.0,0.0,0.0,0.0,344.7975,70.0,0.0,255.0,0.0
11.200000000000017,35.72552420134997,51.27588149064192,1370.0018295645714,6.915489132097719e-05,-2.2833804337096808e-05,0.0,5.684341886080801e-13,-1.1368683772161603e-12,0.0,344.7886956521739,70.0,0.0,255.0,0.0
11.250000000000018,35.72552765495653,51.275880362648856,1370.0018294099718,6.915489132097719e-05,-2.2833804450783646e-05,0.0,-5.684341886080801e-13,0.0,0.0,344.7798913043478,70.0,0.0,255.0,0.0
11.300000000000018,35.7255311085648,51.275879234656585,1370.001829254441,6.915489126413377e-05,-2.2833804337096808e-05,0.0,0.0,1.1368683772161603e-12,0.0,344.77108695652174,70.0,0.0,255.0,0.0
11.35000000000002,35.72553456217479,51.275878106665104,1370.001829101704,6.915489132097719e-05,-2.2833804337096808e-05,0.0,5.684341886080801e-13,0.0,0.0,344.76228260869567,70.0,0.0,255.0,0.0
11.40000000000002,35.7255380157865,51.27587697867438,1370.0018289471045,6.915489132097719e-05,-2.2833804337096808e-05,0.0,-1.1368683772161603e-12,1.1368683772161603e-12,0.0,344.75347826086954,70.0,0.0,255.0,0.0
11.45000000000002,35.72554146939993,51.27587585068445,1370.0018287906423,6.915489120729035e-05,-2.283380422340997e-05,0.0,0.0,0.0,0.0,344.74467391304347,70.0,0.0,255.0,0.0
11.500000000000021,35.725544923015065,51.27587472269529,1370.0018286360428,6.915489132097719e-05,-2.2833804337096808e-05,0.0,1.1368683772161603e-12,-2.2737367544323206e-12,0.0,344.7358695652174,70.0,0.0,255.0,0.0
11.550000000000022,35.72554837663193,51.27587359470692,1370.0018284814432,6.915489132097719e-05,-2.2833804450783646e-05,0.0,0.0,0.0,0.0,344.7270652173913,70.0,0.0,255.0,0.0
11.600000000000023,35.72555183025051,51.27587246671933,1370.001828327775,6.915489132097719e-05,-2.2833804337096808e-05,0.0,0.0,1.1368683772161603e-12,0.0,344.7182608695652,70.0,0.0,255.0,0.0
11.650000000000023,35.7255552838708,51.275871338732514,1370.0018281713128,6.915489132097719e-05,-2.2833804337096808e-05,0.0,-5.684341886080801e-13,-1.1368683772161603e-12,0.0,344.7094565217391,70.0,0.0,255.0,0.0
11.700000000000024,35.72555873749281,51.27587021074646,1370.0018280139193,6.915489126413377e-05,-2.2833804450783646e-05,0.0,0.0,0.0,0.0,344.70065217391306,70.0,0.0,255.0,0.0
11.750000000000025,35.72556219111654,51.275869082761204,1370.001827860251,6.915489132097719e-05,-2.2833804337096808e-05,0.0,5.684341886080801e-13,2.2737367544323206e-12,0.0,344.6918478260869,70.0,0.0,255.0,0.0
11.800000000000026,35.72556564474199,51.27586795477672,1370.0018277028576,6.915489132097719e-05,-2.283380422340997e-05,0.0,-5.684341886080801e-13,0.0,0.0,344.68304347826086,70.0,0.0,255.0,0.0
11.850000000000026,35.72556909836916,51.27586682679303,1370.001827548258,6.915489126413377e-05,-2.2833804337096808e-05,0.0,0.0,-1.1368683772161603e-12,0.0,344.6742391304348,70.0,0.0,255.0,0.0
11.900000000000027,35.72557255199803,51.27586569881009,1370.0018273927271,6.915489132097719e-05,-2.2833804337096808e-05,0.0,5.684341886080801e-13,0.0,0.0,344.6654347826087,70.0,0.0,255.0,0.0
11.950000000000028,35.72557600562863,51.27586457082794,1370.0018272353336,6.915489132097719e-05,-2.2833804337096808e-05,0.0,0.0,-1.1368683772161603e-12,0.0,344.6566304347826,70.0,0.0,255.0,0.0
12.000000000000028,35.72557945926095,51.275863442846564,1370.001827080734,6.915489132097719e-05,-2.2833804450783646e-05,0.0,0.0,0.0,0.0,344.6478260869565,70.0,0.0,255.0,0.0
12.05000000000003,35.725582912894986,51.27586231486597,1370.0018269242719,6.915489132097719e-05,-2.2833804337096808e-05,0.0,-5.684341886080801e-13,1.1368683772161603e-12,0.0,344.63902173913044,70.0,0.0,255.0,0.0
12.10000000000003,35.72558636653074,51.27586118688614,1370.0018267668784,6.915489126413377e-05,-2.2833804337096808e-05,0.0,0.0,0.0,0.0,344.63021739130437,70.0,0.0,255.0,0.0
12.15000000000003,35.72558982016822,51.2758600589071,1370.0018266085535,6.915489132097719e-05,-2.2833804337096808e-05,0.0,5.684341886080801e-13,0.0,0.0,344.62141304347824,70.0,0.0,255.0,0.0
12.200000000000031,35.725593273807405,51.27585893092882,1370.0018264530227,6.915489132097719e-05,-2.2833804337096808e-05,0.0,-5.684341886080801e-13,0.0,0.0,344.61260869565217,70.0,0.0,255.0,0.0
12.250000000000032,35.725596727448306,51.27585780295133,1370.0018262974918,6.915489126413377e-05,-2.2833804337096808e-05,0.0,0.0,0.0,0.0,344.6038043478261,70.0,0.0,255.0,0.0
12.300000000000033,35.72560018109093,51.2758566749746,1370.001826139167,6.915489132097719e-05,-2.2833804337096808e-05,0.0,5.684341886080801e-13,0.0,0.0,344.59499999999997,70.0,0.0,255.0,0.0
12.350000000000033,35.72560363473529,51.27585554699865,1370.0018259817734,6.915489132097719e-05,-2.2833804337096808e-05,0.0,0.0,0.0,0.0,344.5861956521739,70.0,0.0,255.0,0.0
12.400000000000034,35.72560708838135,51.275854419023474,1370.00182582438,6.915489132097719e-05,-2.2833804337096808e-05,0.0,0.0,-1.1368683772161603e-12,0.0,344.5773913043478,70.0,0.0,255.0,0.0
12.450000000000035,35.725610542029145,51.27585329104907,1370.0018256641924,6.915489132097719e-05,-2.2833804450783646e-05,0.0,-5.684341886080801e-13,0.0,0.0,344.56858695652176,70.0,0.0,255.0,0.0
12.500000000000036,35.725613995678636,51.275852163075434,1370.0018255105242,6.915489126413377e-05,-2.2833804337096808e-05,0.0,0.0,1.1368683772161603e-12,0.0,344.5597826086956,70.0,0.0,255.0,0.0
12.550000000000036,35.72561744932987,51.27585103510258,1370.0018253521994,6.915489132097719e-05,-2.2833804337096808e-05,0.0,5.684341886080801e-13,0.0,0.0,344.55097826086956,70.0,0.0,255.0,0.0
12.600000000000037,35.725620902982804,51.27584990713051,1370.0018251938745,6.915489132097719e-05,-2.2833804337096808e-05,0.0,-5.684341886080801e-13,1.1368683772161603e-12,0.0,344.5421739130435,70.0,0.0,255.0,0.0
12.650000000000038,35.72562435663746,51.27584877915918,1370.0018250355497,6.915489126413377e-05,-2.283380422340997e-05,0.0,0.0,0.0,0.0,344.5333695652174,70.0,0.0,255.0,0.0
12.700000000000038,35.72562781029384,51.275847651188656,1370.0018248781562,6.915489132097719e-05,-2.2833804337096808e-05,0.0,5.684341886080801e-13,-2.2737367544323206e-12,0.0,344.5245652173913,70.0,0.0,255.0,0.0
12.750000000000039,35.725631263951946,51.275846523218874,1370.0018247179687,6.915489132097719e-05,-2.2833804450783646e-05,0.0,0.0,-1.1368683772161603e-12,0.0,344.5157608695652,70.0,0.0,255.0,0.0
12.80000000000004,35.72563471761176,51.27584539524988,1370.0018245596439,6.915489132097719e-05,-2.2833804450783646e-05,0.0,0.0,1.1368683772161603e-12,0.0,344.50695652173914,70.0,0.0,255.0,0.0
12.85000000000004,35.7256381712733,51.275844267281656,1370.0018244022503,6.915489132097719e-05,-2.2833804337096808e-05,0.0,-1.1368683772161603e-12,1.1368683772161603e-12,0.0,344.498152173913,70.0,0.0,255.0,0.0
12.900000000000041,35.72564162493656,51.275843139314205,1370.0018242420629,6.915489120729035e-05,-2.2833804337096808e-05,0.0,0.0,0.0,0.0,344.48934782608694,70.0,0.0,255.0,0.0
12.950000000000042,35.72564507860153,51.275842011347514,1370.0018240856007,6.915489132097719e-05,-2.2833804337096808e-05,0.0,1.1368683772161603e-12,1.1368683772161603e-12,0.0,344.48054347826087,70.0,0.0,255.0,0.0
13.000000000000043,35.72564853226823,51.27584088338159,1370.0018239244819,6.915489132097719e-05,-2.283380422340997e-05,0.0,-5.684341886080801e-13,0.0,0.0,344.4717391304348,70.0,0.0,255.0,0.0
13.050000000000043,35.72565198593665,51.27583975541645,1370.001823766157,6.915489126413377e-05,-2.2833804337096808e-05,0.0,0.0,-2.2737367544323206e-12,0.0,344.46293478260867,70.0,0.0,255.0,0.0
13.100000000000044,35.7256554396068,51.27583862745206,1370.0018236069009,6.915489132097719e-05,-2.2833804450783646e-05,0.0,5.684341886080801e-13,0.0,0.0,344.4541304347826,70.0,0.0,255.0,0.0
13.150000000000045,35.725658893278656,51.27583749948846,1370.0018234476447,6.915489132097719e-05,-2.2833804337096808e-05,0.0,-5.684341886080801e-13,1.1368683772161603e-12,0.0,344.4453260869565,70.0,0.0,255.0,0.0
13.200000000000045,35.72566234695224,51.27583637152563,1370.0018232874572,6.915489126413377e-05,-2.2833804337096808e-05,0.0,0.0,-1.1368683772161603e-12,0.0,344.43652173913046,70.0,0.0,255.0,0.0
13.250000000000046,35.72566580062752,51.27583524356355,1370.001823128201,6.915489132097719e-05,-2.2833804450783646e-05,0.0,5.684341886080801e-13,0.0,0.0,344.4277173913043,70.0,0.0,255.0,0.0
13.300000000000047,35.72566925430455,51.275834115602244,1370.0018229680136,6.915489132097719e-05,-2.2833804337096808e-05,0.0,0.0,2.2737367544323206e-12,0.0,344.41891304347826,70.0,0.0,255.0,0.0
13.350000000000048,35.72567270798328,51.275832987641714,1370.0018228096887,6.915489132097719e-05,-2.283380422340997e-05,0.0,0.0,0.0,0.0,344.4101086956522,70.0,0.0,255.0,0.0
13.400000000000048,35.725676161663756,51.275831859681944,1370.0018226476386,6.915489132097719e-05,-2.2833804337096808e-05,0.0,-5.684341886080801e-13,-1.1368683772161603e-12,0.0,344.40130434782606,70.0,0.0,255.0,0.0
13.450000000000049,35.725679615345925,51.275830731722934,1370.0018224893138,6.915489126413377e-05,-2.2833804337096808e-05,0.0,0.0,0.0,0.0,344.3925,70.0,0.0,255.0,0.0
13.50000000000005,35.725683069029834,51.275829603764706,1370.0018223272637,6.915489132097719e-05,-2.2833804337096808e-05,0.0,5.684341886080801e-13,-1.1368683772161603e-12,0.0,344.3836956521739,70.0,0.0,255.0,0.0
13.55000000000005,35.72568652271546,51.27582847580724,1370.0018221670762,6.915489132097719e-05,-2.2833804450783646e-05,0.0,-5.684341886080801e-13,0.0,0.0,344.37489130434784,70.0,0.0,255.0,0.0
13.600000000000051,35.72568997640281,51.27582734785053,1370.0018220040947,6.915489126413377e-05,-2.2833804337096808e-05,0.0,0.0,1.1368683772161603e-12,0.0,344.3660869565217,70.0,0.0,255.0,0.0
13.650000000000052,35.725693430091866,51.2758262198946,1370.0018218457699,6.915489132097719e-05,-2.2833804337096808e-05,0.0,5.684341886080801e-13,0.0,0.0,344.35728260869564,70.0,0.0,255.0,0.0
13.700000000000053,35.72569688378267,51.27582509193942,1370.0018216827884,6.915489132097719e-05,-2.2833804337096808e-05,0.0,0.0,0.0,0.0,344.34847826086957,70.0,0.0,255.0,0.0
13.750000000000053,35.72570033747516,51.27582396398501,1370.001821522601,6.915489132097719e-05,-2.2833804337096808e-05,0.0,0.0,0.0,0.0,344.33967391304344,70.0,0.0,255.0,0.0
13.800000000000054,35.7257037911694,51.275822836031374,1370.0018213596195,6.915489132097719e-05,-2.2833804337096808e-05,0.0,-5.684341886080801e-13,0.0,0.0,344.33086956521737,70.0,0.0,255.0,0.0
13.850000000000055,35.72570724486535,51.275821708078496,1370.001821202226,6.915489126413377e-05,-2.2833804337096808e-05,0.0,0.0,0.0,0.0,344.3220652173913,70.0,0.0,255.0,0.0
13.900000000000055,35.72571069856303,51.275820580126386,1370.0018210401759,6.915489132097719e-05,-2.2833804337096808e-05,0.0,5.684341886080801e-13,0.0,0.0,344.3132608695652,70.0,0.0,255.0,0.0
13.950000000000056,35.72571415226243,51.27581945217504,1370.0018208771944,6.915489132097719e-05,-2.2833804337096808e-05,0.0,-5.684341886080801e-13,-1.1368683772161603e-12,0.0,344.3044565217391,70.0,0.0,255.0,0.0
14.000000000000057,35.72571760596354,51.27581832422444,1370.0018207160756,6.915489126413377e-05,-2.2833804450783646e-05,0.0,0.0,0.0,0.0,344.295652173913,70.0,0.0,255.0,0.0
14.050000000000058,35.72572105966638,51.27581719627462,1370.0018205540255,6.915489132097719e-05,-2.2833804337096808e-05,0.0,5.684341886080801e-13,1.1368683772161603e-12,0.0,344.28684782608696,70.0,0.0,255.0,0.0
14.100000000000058,35.72572451337094,51.27581606832556,1370.0018203919753,6.915489132097719e-05,-2.2833804337096808e-05,0.0,0.0,0.0,0.0,344.2780434782609,70.0,0.0,255.0,0.0
14.150000000000059,35.725727967077226,51.275814940377266,1370.0018202299252,6.915489132097719e-05,-2.2833804337096808e-05,0.0,0.0,1.1368683772161603e-12,0.0,344.26923913043476,70.0,0.0,255.0,0.0
14.20000000000006,35.72573142078524,51.27581381242973,1370.0018200669438,6.915489132097719e-05,-2.283380422340997e-05,0.0,-5.684341886080801e-13,0.0,0.0,344.2604347826087,70.0,0.0,255.0,0.0
14.25000000000006,35.72573487449496,51.27581268448296,1370.0018199048936,6.915489126413377e-05,-2.2833804337096808e-05,0.0,0.0,-2.2737367544323206e-12,0.0,344.2516304347826,70.0,0.0,255.0,0.0
14.300000000000061,35.72573832820641,51.27581155653694,1370.0018197428435,6.915489132097719e-05,-2.2833804450783646e-05,0.0,0.0,0.0,0.0,344.2428260869565,70.0,0.0,255.0,0.0
14.350000000000062,35.725741781919595,51.27581042859168,1370.0018195789307,6.915489126413377e-05,-2.2833804337096808e-05,0.0,-5.684341886080801e-13,1.1368683772161603e-12,0.0,344.2340217391304,70.0,0.0,255.0,0.0
14.400000000000063,35.72574523563447,51.2758093006472,1370.0018194159493,6.915489126413377e-05,-2.2833804337096808e-05,0.0,5.684341886080801e-13,-1.1368683772161603e-12,0.0,344.22521739130434,70.0,0.0,255.0,0.0
14.450000000000063,35.7257486893511,51.275808172703464,1370.0018192538992,6.915489132097719e-05,-2.2833804450783646e-05,0.0,5.684341886080801e-13,0.0,0.0,344.21641304347827,70.0,0.0,255.0,0.0
14.500000000000064,35.72575214306944,51.27580704476049,1370.0018190909177,6.915489132097719e-05,-2.2833804337096808e-05,0.0,-5.684341886080801e-13,2.2737367544323206e-12,0.0,344.20760869565214,70.0,0.0,255.0,0.0
14.550000000000065,35.725755596789504,51.27580591681829,1370.001818927005,6.915489126413377e-05,-2.283380422340997e-05,0.0,0.0,0.0,0.0,344.19880434782607,70.0,0.0,255.0,0.0
14.600000000000065,35.725759050511286,51.275804788876826,1370.0018187630922,6.915489132097719e-05,-2.2833804337096808e-05,0.0,5.684341886080801e-13,-2.2737367544323206e-12,0.0,344.19,70.0,0.0,255.0,0.0
14.650000000000066,35.7257625042348,51.275803660936134,1370.0018186001107,6.915489132097719e-05,-2.2833804450783646e-05,0.0,0.0,0.0,0.0,344.1811956521739,70.0,0.0,255.0,0.0
14.700000000000067,35.725765957960036,51.2758025329962,1370.001818436198,6.915489132097719e-05,-2.2833804337096808e-05,0.0,0.0,1.1368683772161603e-12,0.0,344.1723913043478,70.0,0.0,255.0,0.0
14.750000000000068,35.725769411687,51.275801405057024,1370.0018182722852,6.915489132097719e-05,-2.2833804337096808e-05,0.0,-5.684341886080801e-13,-1.1368683772161603e-12,0.0,344.1635869565217,70.0,0.0,255.0,0.0
14.800000000000068,35.72577286541567,51.275800277118606,1370.0018181093037,6.915489126413377e-05,-2.2833804450783646e-05,0.0,0.0,0.0,0.0,344.15478260869565,70.0,0.0,255.0,0.0
14.850000000000069,35.72577631914607,51.27579914918095,1370.0018179435283,6.915489132097719e-05,-2.2833804337096808e-05,0.0,5.684341886080801e-13,2.2737367544323206e-12,0.0,344.1459782608695,70.0,0.0,255.0,0.0
14.90000000000007,35.725779772878205,51.27579802124405,1370.0018177805468,6.915489132097719e-05,-2.283380422340997e-05,0.0,-5.684341886080801e-13,0.0,0.0,344.13717391304345,70.0,0.0,255.0,0.0
14.95000000000007,35.72578322661206,51.275796893307906,1370.0018176147714,6.915489126413377e-05,-2.2833804337096808e-05,0.0,0.0,-1.1368683772161603e-12,0.0,344.1283695652174,70.0,0.0,255.0,0.0
15.000000000000071,35.725786680347625,51.27579576537252,1370.00181745179,6.915489132097719e-05,-2.2833804337096808e-05,0.0,5.684341886080801e-13,0.0,0.0,344.1195652173913,70.0,0.0,255.0,0.0
15.050000000000072,35.72579013408492,51.27579463743789,1370.0018172869459,6.915489132097719e-05,-2.2833804337096808e-05,0.0,0.0,-1.1368683772161603e-12,0.0,344.1107608695652,70.0,0.0,255.0,0.0
15.100000000000072,35.72579358782396,51.27579350950402,1370.0018171239644,6.915489132097719e-05,-2.2833804450783646e-05,0.0,0.0,0.0,0.0,344.1019565217391,70.0,0.0,255.0,0.0
15.150000000000073,35.72579704156471,51.275792381570895,1370.0018169563264,6.915489132097719e-05,-2.2833804337096808e-05,0.0,-5.684341886080801e-13,1.1368683772161603e-12,0.0,344.09315217391304,70.0,0.0,255.0,0.0
15.200000000000074,35.72580049530716,51.27579125363854,1370.0018167914823,6.915489126413377e-05,-2.2833804337096808e-05,0.0,0.0,0.0,0.0,344.08434782608697,70.0,0.0,255.0,0.0
15.250000000000075,35.72580394905137,51.275790125706926,1370.0018166275695,6.915489132097719e-05,-2.2833804337096808e-05,0.0,5.684341886080801e-13,0.0,0.0,344.07554347826084,70.0,0.0,255.0,0.0
15.300000000000075,35.725807402797294,51.275788997776075,1370.001816461794,6.915489132097719e-05,-2.2833804337096808e-05,0.0,-5.684341886080801e-13,0.0,0.0,344.06673913043477,70.0,0.0,255.0,0.0
15.350000000000076,35.725810856544925,51.27578786984598,1370.0018162978813,6.915489126413377e-05,-2.2833804337096808e-05,0.0,0.0,0.0,0.0,344.0579347826087,70.0,0.0,255.0,0.0
15.400000000000077,35.7258143102943,51.27578674191664,1370.0018161311746,6.915489132097719e-05,-2.2833804337096808e-05,0.0,5.684341886080801e-13,0.0,0.0,344.04913043478257,70.0,0.0,255.0,0.0
15.450000000000077,35.7258177640454,51.27578561398804,1370.0018159653991,6.915489132097719e-05,-2.2833804337096808e-05,0.0,0.0,0.0,0.0,344.0403260869565,70.0,0.0,255.0,0.0
15.500000000000078,35.72582121779821,51.27578448606021,1370.0018157986924,6.915489132097719e-05,-2.2833804337096808e-05,0.0,0.0,-1.1368683772161603e-12,0.0,344.0315217391304,70.0,0.0,255.0,0.0
15.550000000000079,35.72582467155275,51.27578335813312,1370.0018156338483,6.915489132097719e-05,-2.2833804450783646e-05,0.0,-5.684341886080801e-13,0.0,0.0,344.02271739130435,70.0,0.0,255.0,0.0
15.60000000000008,35.725828125309015,51.275782230206794,1370.0018154671416,6.915489126413377e-05,-2.2833804337096808e-05,0.0,0.0,1.1368683772161603e-12,0.0,344.0139130434782,70.0,0.0,255.0,0.0
15.65000000000008,35.72583157906701,51.27578110228122,1370.0018153004348,6.915489132097719e-05,-2.2833804337096808e-05,0.0,5.684341886080801e-13,0.0,0.0,344.00510869565215,70.0,0.0,255.0,0.0
15.700000000000081,35.72583503282673,51.27577997435639,1370.0018151346594,6.915489132097719e-05,-2.2833804337096808e-05,0.0,-5.684341886080801e-13,1.1368683772161603e-12,0.0,343.9963043478261,70.0,0.0,255.0,0.0
15.750000000000082,35.725838486588174,51.27577884643232,1370.0018149679527,6.915489126413377e-05,-2.283380422340997e-05,0.0,-5.684341886080801e-13,0.0,0.0,343.9875,70.0,0.0,255.0,0.0
15.800000000000082,35.725841940351344,51.275777718509005,1370.001814801246,6.915489126413377e-05,-2.2833804337096808e-05,0.0,5.684341886080801e-13,-2.2737367544323206e-12,0.0,343.9786956521739,70.0,0.0,255.0,0.0
15.850000000000083,35.72584539411623,51.27577659058643,1370.0018146354705,6.915489132097719e-05,-2.2833804450783646e-05,0.0,0.0,0.0,0.0,343.9698913043478,70.0,0.0,255.0,0.0
15.900000000000084,35.72584884788286,51.27577546266461,1370.0018144678324,6.915489126413377e-05,-2.2833804337096808e-05,0.0,0.0,1.1368683772161603e-12,0.0,343.96108695652174,70.0,0.0,255.0,0.0
15.950000000000085,35.72585230165119,51.275774334743545,1370.0018143011257,6.915489132097719e-05,-2.2833804337096808e-05,0.0,5.684341886080801e-13,-1.1368683772161603e-12,0.0,343.9522826086956,70.0,0.0,255.0,0.0
16.000000000000085,35.725855755421264,51.27577320682323,1370.0018141353503,6.915489132097719e-05,-2.2833804450783646e-05,0.0,0.0,0.0,0.0,343.94347826086954,70.0,0.0,255.0,0.0
16.050000000000086,35.72585920919306,51.27577207890365,1370.0018139677122,6.915489132097719e-05,-2.2833804337096808e-05,0.0,0.0,2.2737367544323206e-12,0.0,343.93467391304347,70.0,0.0,255.0,0.0
16.100000000000087,35.725862662966584,51.27577095098484,1370.0018137991428,6.915489132097719e-05,-2.283380422340997e-05,0.0,-5.684341886080801e-13,0.0,0.0,343.9258695652174,70.0,0.0,255.0,0.0
16.150000000000087,35.72586611674182,51.27576982306677,1370.001813632436,6.915489126413377e-05,-2.2833804337096808e-05,0.0,0.0,-1.1368683772161603e-12,0.0,343.91706521739127,70.0,0.0,255.0,0.0
16.200000000000088,35.7258695705188,51.27576869514945,1370.001813464798,6.915489132097719e-05,-2.2833804337096808e-05,0.0,5.684341886080801e-13,0.0,0.0,343.9082608695652,70.0,0.0,255.0,0.0
16.25000000000009,35.725873024297506,51.27576756723289,1370.0018132962286,6.915489132097719e-05,-2.2833804337096808e-05,0.0,-5.684341886080801e-13,-1.1368683772161603e-12,0.0,343.8994565217391,70.0,0.0,255.0,0.0
16.30000000000009,35.72587647807794,51.27576643931707,1370.0018131285906,6.915489126413377e-05,-2.2833804450783646e-05,0.0,0.0,0.0,0.0,343.89065217391305,70.0,0.0,255.0,0.0
16.35000000000009,35.725879931860085,51.27576531140198,1370.0018129609525,6.915489132097719e-05,-2.2833804337096808e-05,0.0,5.684341886080801e-13,1.1368683772161603e-12,0.0,343.8818478260869,70.0,0.0,255.0,0.0
16.40000000000009,35.725883385643954,51.275764183487674,1370.0018127933145,6.915489132097719e-05,-2.2833804337096808e-05,0.0,0.0,0.0,0.0,343.87304347826085,70.0,0.0,255.0,0.0
16.45000000000009,35.72588683942957,51.27576305557408,1370.001812624745,6.915489132097719e-05,-2.2833804337096808e-05,0.0,0.0,0.0,0.0,343.8642391304348,70.0,0.0,255.0,0.0
16.500000000000092,35.7258902932169,51.27576192766126,1370.0018124561757,6.915489132097719e-05,-2.2833804337096808e-05,0.0,-5.684341886080801e-13,0.0,0.0,343.85543478260865,70.0,0.0,255.0,0.0
16.550000000000093,35.725893747005955,51.27576079974917,1370.0018122857437,6.915489126413377e-05,-2.2833804337096808e-05,0.0,0.0,0.0,0.0,343.8466304347826,70.0,0.0,255.0,0.0
16.600000000000094,35.72589720079675,51.27575967183783,1370.0018121171743,6.915489132097719e-05,-2.2833804337096808e-05,0.0,5.684341886080801e-13,-1.1368683772161603e-12,0.0,343.8378260869565,70.0,0.0,255.0,0.0
16.650000000000095,35.72590065458925,51.27575854392724,1370.0018119495362,6.915489132097719e-05,-2.2833804450783646e-05,0.0,-5.684341886080801e-13,0.0,0.0,343.82902173913044,70.0,0.0,255.0,0.0
16.700000000000095,35.7259041083835,51.275757416017385,1370.0018117800355,6.915489126413377e-05,-2.2833804337096808e-05,0.0,0.0,1.1368683772161603e-12,0.0,343.8202173913043,70.0,0.0,255.0,0.0
16.750000000000096,35.72590756217946,51.2757562881083,1370.0018116096035,6.915489132097719e-05,-2.2833804337096808e-05,0.0,5.684341886080801e-13,0.0,0.0,343.81141304347824,70.0,0.0,255.0,0.0
16.800000000000097,35.725911015977154,51.27575516019994,1370.001811441034,6.915489132097719e-05,-2.2833804337096808e-05,0.0,0.0,0.0,0.0,343.80260869565217,70.0,0.0,255.0,0.0
16.850000000000097,35.725914469776576,51.275754032292326,1370.0018112724647,6.915489132097719e-05,-2.2833804337096808e-05,0.0,0.0,0.0,0.0,343.7938043478261,70.0,0.0,255.0,0.0
16.900000000000098,35.72591792357773,51.275752904385456,1370.001811102964,6.915489132097719e-05,-2.2833804337096808e-05,0.0,-5.684341886080801e-13,0.0,0.0,343.78499999999997,70.0,0.0,255.0,0.0
16.9500000000001,35.7259213773806,51.27575177647934,1370.0018109316006,6.915489126413377e-05,-2.2833804337096808e-05,0.0,0.0,0.0,0.0,343.7761956521739,70.0,0.0,255.0,0.0
17.0000000000001,35.72592483118521,51.275750648573954,1370.0018107621,6.915489132097719e-05,-2.2833804337096808e-05,0.0,5.684341886080801e-13,0.0,0.0,343.7673913043478,70.0,0.0,255.0,0.0
17.0500000000001,35.72592828499154,51.27574952066933,1370.0018105925992,6.915489132097719e-05,-2.2833804337096808e-05,0.0,-5.684341886080801e-13,-1.1368683772161603e-12,0.0,343.7585869565217,70.0,0.0,255.0,0.0
17.1000000000001,35.725931738799595,51.275748392765436,1370.0018104240298,6.915489126413377e-05,-2.2833804450783646e-05,0.0,-5.684341886080801e-13,0.0,0.0,343.7497826086956,70.0,0.0,255.0,0.0
17.1500000000001,35.72593519260938,51.27574726486229,1370.0018102517352,6.915489126413377e-05,-2.2833804337096808e-05,0.0,5.684341886080801e-13,1.1368683772161603e-12,0.0,343.74097826086955,70.0,0.0,255.0,0.0
17.200000000000102,35.725938646420886,51.27574613695988,1370.0018100813031,6.915489132097719e-05,-2.2833804337096808e-05,0.0,0.0,0.0,0.0,343.7321739130435,70.0,0.0,255.0,0.0
17.250000000000103,35.725942100234136,51.27574500905823,1370.001809910871,6.915489126413377e-05,-2.2833804337096808e-05,0.0,0.0,1.1368683772161603e-12,0.0,343.72336956521735,70.0,0.0,255.0,0.0
17.300000000000104,35.725945554049105,51.2757438811573,1370.001809740439,6.915489132097719e-05,-2.283380422340997e-05,0.0,5.684341886080801e-13,0.0,0.0,343.7145652173913,70.0,0.0,255.0,0.0
17.350000000000104,35.7259490078658,51.27574275325712,1370.0018095709383,6.915489132097719e-05,-2.2833804337096808e-05,0.0,0.0,-2.2737367544323206e-12,0.0,343.7057608695652,70.0,0.0,255.0,0.0
17.400000000000105,35.72595246168422,51.27574162535768,1370.0018093986437,6.915489132097719e-05,-2.2833804450783646e-05,0.0,0.0,0.0,0.0,343.69695652173914,70.0,0.0,255.0,0.0
17.450000000000106,35.725955915504386,51.27574049745898,1370.0018092272803,6.915489132097719e-05,-2.2833804337096808e-05,0.0,-5.684341886080801e-13,1.1368683772161603e-12,0.0,343.688152173913,70.0,0.0,255.0,0.0
17.500000000000107,35.72595936932626,51.27573936956103,1370.001809055917,6.915489126413377e-05,-2.2833804337096808e-05,0.0,0.0,-1.1368683772161603e-12,0.0,343.67934782608694,70.0,0.0,255.0,0.0
17.550000000000107,35.725962823149885,51.27573824166382,1370.0018088836223,6.915489132097719e-05,-2.2833804450783646e-05,0.0,5.684341886080801e-13,0.0,0.0,343.67054347826087,70.0,0.0,255.0,0.0
17.600000000000108,35.725966276975214,51.27573711376734,1370.0018087141216,6.915489132097719e-05,-2.2833804337096808e-05,0.0,-5.684341886080801e-13,2.2737367544323206e-12,0.0,343.66173913043474,70.0,0.0,255.0,0.0
17.65000000000011,35.72596973080229,51.2757359858716,1370.0018085427582,6.915489126413377e-05,-2.283380422340997e-05,0.0,0.0,0.0,0.0,343.65293478260867,70.0,0.0,255.0,0.0
17.70000000000011,35.72597318463109,51.2757348579766,1370.0018083695322,6.915489132097719e-05,-2.2833804337096808e-05,0.0,5.684341886080801e-13,-1.1368683772161603e-12,0.0,343.6441304347826,70.0,0.0,255.0,0.0
17.75000000000011,35.72597663846162,51.275733730082344,1370.0018082000315,6.915489132097719e-05,-2.2833804337096808e-05,0.0,0.0,0.0,0.0,343.6353260869565,70.0,0.0,255.0,0.0
17.80000000000011,35.72598009229388,51.27573260218883,1370.0018080258742,6.915489132097719e-05,-2.2833804337096808e-05,0.0,0.0,-1.1368683772161603e-12,0.0,343.6265217391304,70.0,0.0,255.0,0.0
17.85000000000011,35.725983546127864,51.27573147429604,1370.0018078526482,6.915489132097719e-05,-2.2833804450783646e-05,0.0,-5.684341886080801e-13,0.0,0.0,343.6177173913043,70.0,0.0,255.0,0.0
17.900000000000112,35.725986999963574,51.275730346403996,1370.0018076831475,6.915489126413377e-05,-2.2833804337096808e-05,0.0,0.0,1.1368683772161603e-12,0.0,343.60891304347825,70.0,0.0,255.0,0.0
17.950000000000113,35.72599045380102,51.275729218512694,1370.0018075117841,6.915489132097719e-05,-2.2833804337096808e-05,0.0,5.684341886080801e-13,0.0,0.0,343.6001086956522,70.0,0.0,255.0,0.0
18.000000000000114,35.72599390764019,51.275728090622124,1370.0018073376268,6.915489132097719e-05,-2.2833804337096808e-05,0.0,-5.684341886080801e-13,0.0,0.0,343.59130434782605,70.0,0.0,255.0,0.0
18.050000000000114,35.7259973614811,51.275726962732286,1370.0018071634695,6.915489126413377e-05,-2.2833804337096808e-05,0.0,0.0,0.0,0.0,343.5825,70.0,0.0,255.0,0.0
18.100000000000115,35.72600081532372,51.2757258348432,1370.0018069911748,6.915489132097719e-05,-2.2833804337096808e-05,0.0,5.684341886080801e-13,0.0,0.0,343.5736956521739,70.0,0.0,255.0,0.0
18.150000000000116,35.72600426916808,51.27572470695485,1370.0018068179488,6.915489132097719e-05,-2.2833804337096808e-05,0.0,0.0,0.0,0.0,343.5648913043478,70.0,0.0,255.0,0.0
18.200000000000117,35.72600772301416,51.27572357906722,1370.0018066456541,6.915489132097719e-05,-2.2833804337096808e-05,0.0,0.0,0.0,0.0,343.5560869565217,70.0,0.0,255.0,0.0
18.250000000000117,35.726011176862,51.275722451180336,1370.0018064714968,6.915489132097719e-05,-2.2833804337096808e-05,0.0,-5.684341886080801e-13,-1.1368683772161603e-12,0.0,343.54728260869564,70.0,0.0,255.0,0.0
18.300000000000118,35.726014630711546,51.27572132329419,1370.0018062992021,6.915489126413377e-05,-2.2833804450783646e-05,0.0,0.0,0.0,0.0,343.53847826086957,70.0,0.0,255.0,0.0
18.35000000000012,35.72601808456284,51.275720195408766,1370.0018061250448,6.915489132097719e-05,-2.2833804337096808e-05,0.0,5.684341886080801e-13,1.1368683772161603e-12,0.0,343.52967391304344,70.0,0.0,255.0,0.0
18.40000000000012,35.72602153841584,51.275719067524086,1370.0018059527501,6.915489132097719e-05,-2.2833804337096808e-05,0.0,-5.684341886080801e-13,0.0,0.0,343.52086956521737,70.0,0.0,255.0,0.0
18.45000000000012,35.72602499227059,51.27571793964014,1370.0018057776615,6.915489126413377e-05,-2.2833804337096808e-05,0.0,0.0,0.0,0.0,343.5120652173913,70.0,0.0,255.0,0.0
18.50000000000012,35.72602844612705,51.27571681175693,1370.0018056035042,6.915489132097719e-05,-2.2833804337096808e-05,0.0,5.684341886080801e-13,0.0,0.0,343.5032608695652,70.0,0.0,255.0,0.0
18.55000000000012,35.72603189998526,51.275715683874445,1370.0018054302782,6.915489132097719e-05,-2.2833804337096808e-05,0.0,-1.1368683772161603e-12,0.0,0.0,343.4944565217391,70.0,0.0,255.0,0.0
18.600000000000122,35.72603535384519,51.2757145559927,1370.0018052570522,6.915489120729035e-05,-2.2833804337096808e-05,0.0,0.0,-1.1368683772161603e-12,0.0,343.485652173913,70.0,0.0,255.0,0.0
18.650000000000123,35.72603880770685,51.275713428111686,1370.0018050819635,6.915489132097719e-05,-2.2833804450783646e-05,0.0,1.1368683772161603e-12,0.0,0.0,343.47684782608695,70.0,0.0,255.0,0.0
18.700000000000124,35.72604226157024,51.275712300231405,1370.0018049078062,6.915489132097719e-05,-2.2833804337096808e-05,0.0,0.0,1.1368683772161603e-12,0.0,343.4680434782608,70.0,0.0,255.0,0.0
18.750000000000124,35.72604571543537,51.27571117235187,1370.001804733649,6.915489132097719e-05,-2.2833804337096808e-05,0.0,0.0,0.0,0.0,343.45923913043475,70.0,0.0,255.0,0.0
18.800000000000125,35.72604916930223,51.275710044473044,1370.0018045585603,6.915489132097719e-05,-2.2833804337096808e-05,0.0,-5.684341886080801e-13,1.1368683772161603e-12,0.0,343.4504347826087,70.0,0.0,255.0,0.0
18.850000000000126,35.7260526231708,51.275708916594965,1370.0018043834716,6.915489126413377e-05,-2.283380422340997e-05,0.0,0.0,0.0,0.0,343.4416304347826,70.0,0.0,255.0,0.0
18.900000000000126,35.726056077041136,51.27570778871761,1370.0018042093143,6.915489132097719e-05,-2.2833804337096808e-05,0.0,5.684341886080801e-13,-2.2737367544323206e-12,0.0,343.4328260869565,70.0,0.0,255.0,0.0
18.950000000000127,35.72605953091318,51.275706660840996,1370.0018040332943,6.915489132097719e-05,-2.2833804450783646e-05,0.0,-5.684341886080801e-13,0.0,0.0,343.4240217391304,70.0,0.0,255.0,0.0
19.000000000000128,35.726062984786964,51.275705532965105,1370.0018038582057,6.915489126413377e-05,-2.2833804337096808e-05,0.0,0.0,1.1368683772161603e-12,0.0,343.41521739130434,70.0,0.0,255.0,0.0
19.05000000000013,35.726066438662464,51.27570440508995,1370.001803683117,6.915489132097719e-05,-2.2833804337096808e-05,0.0,5.684341886080801e-13,-1.1368683772161603e-12,0.0,343.40641304347827,70.0,0.0,255.0,0.0
19.10000000000013,35.72606989253971,51.27570327721552,1370.0018035061657,6.915489132097719e-05,-2.2833804450783646e-05,0.0,0.0,0.0,0.0,343.39760869565214,70.0,0.0,255.0,0.0
19.15000000000013,35.726073346418694,51.27570214934182,1370.0018033301458,6.915489132097719e-05,-2.2833804337096808e-05,0.0,0.0,2.2737367544323206e-12,0.0,343.38880434782607,70.0,0.0,255.0,0.0
19.20000000000013,35.726076800299396,51.275701021468855,1370.0018031550571,6.915489132097719e-05,-2.283380422340997e-05,0.0,-5.684341886080801e-13,0.0,0.0,343.38,70.0,0.0,255.0,0.0
19.25000000000013,35.72608025418183,51.27569989359662,1370.0018029790372,6.915489126413377e-05,-2.2833804337096808e-05,0.0,0.0,-1.1368683772161603e-12,0.0,343.37119565217387,70.0,0.0,255.0,0.0
19.300000000000132,35.726083708066,51.2756987657251,1370.0018028048798,6.915489132097719e-05,-2.2833804337096808e-05,0.0,5.684341886080801e-13,0.0,0.0,343.3623913043478,70.0,0.0,255.0,0.0
19.350000000000133,35.7260871619519,51.27569763785432,1370.0018026269972,6.915489132097719e-05,-2.2833804337096808e-05,0.0,-5.684341886080801e-13,-1.1368683772161603e-12,0.0,343.3535869565217,70.0,0.0,255.0,0.0
19.400000000000134,35.726090615839546,51.275696509984265,1370.0018024509773,6.915489126413377e-05,-2.2833804450783646e-05,0.0,0.0,0.0,0.0,343.34478260869565,70.0,0.0,255.0,0.0
19.450000000000134,35.726094069728894,51.27569538211494,1370.0018022758886,6.915489132097719e-05,-2.2833804337096808e-05,0.0,5.684341886080801e-13,1.1368683772161603e-12,0.0,343.3359782608695,70.0,0.0,255.0,0.0
19.500000000000135,35.72609752362,51.27569425424634,1370.0018020989373,6.915489132097719e-05,-2.2833804337096808e-05,0.0,0.0,0.0,0.0,343.32717391304345,70.0,0.0,255.0,0.0
19.550000000000136,35.726100977512814,51.27569312637847,1370.0018019238487,6.915489132097719e-05,-2.2833804337096808e-05,0.0,0.0,0.0,0.0,343.3183695652174,70.0,0.0,255.0,0.0
19.600000000000136,35.72610443140739,51.27569199851133,1370.001801745966,6.915489132097719e-05,-2.2833804337096808e-05,0.0,-5.684341886080801e-13,0.0,0.0,343.3095652173913,70.0,0.0,255.0,0.0
19.650000000000137,35.726107885303676,51.27569087064492,1370.0018015690148,6.915489126413377e-05,-2.2833804337096808e-05,0.0,0.0,0.0,0.0,343.3007608695652,70.0,0.0,255.0,0.0
19.700000000000138,35.72611133920171,51.275689742779214,1370.0018013920635,6.915489132097719e-05,-2.2833804337096808e-05,0.0,5.684341886080801e-13,0.0,0.0,343.2919565217391,70.0,0.0,255.0,0.0
19.75000000000014,35.726114793101466,51.27568861491425,1370.0018012132496,6.915489132097719e-05,-2.2833804337096808e-05,0.0,-5.684341886080801e-13,0.0,0.0,343.28315217391304,70.0,0.0,255.0,0.0
19.80000000000014,35.72611824700296,51.275687487050014,1370.0018010362983,6.915489126413377e-05,-2.2833804337096808e-05,0.0,0.0,-1.1368683772161603e-12,0.0,343.2743478260869,70.0,0.0,255.0,0.0
19.85000000000014,35.72612170090617,51.275686359186494,1370.001800859347,6.915489132097719e-05,-2.2833804450783646e-05,0.0,5.684341886080801e-13,0.0,0.0,343.26554347826084,70.0,0.0,255.0,0.0
19.90000000000014,35.726125154811136,51.27568523132371,1370.0018006814644,6.915489132097719e-05,-2.2833804337096808e-05,0.0,0.0,1.1368683772161603e-12,0.0,343.25673913043477,70.0,0.0,255.0,0.0
19.95000000000014,35.72612860871783,51.27568410346165,1370.0018005035818,6.915489132097719e-05,-2.2833804337096808e-05,0.0,0.0,0.0,0.0,343.2479347826087,70.0,0.0,255.0,0.0
20.000000000000142,35.726132062626256,51.275682975600304,1370.0018003266305,6.915489132097719e-05,-2.2833804337096808e-05,0.0,-1.1368683772161603e-12,1.1368683772161603e-12,0.0,343.23913043478257,70.0,0.0,255.0,0.0
20.050000000000143,35.72613551653642,51.27568184773969,1370.0018001487479,6.915489120729035e-05,-2.283380422340997e-05,0.0,0.0,0.0,0.0,343.2303260869565,70.0,0.0,255.0,0.0
20.100000000000144,35.726138970448304,51.2756807198798,1370.001799969934,6.915489132097719e-05,-2.2833804337096808e-05,0.0,1.1368683772161603e-12,-2.2737367544323206e-12,0.0,343.2215217391304,70.0,0.0,255.0,0.0
20.150000000000144,35.726142424361925,51.27567959202063,1370.0017997901887,6.915489132097719e-05,-2.2833804450783646e-05,0.0,-5.684341886080801e-13,0.0,0.0,343.2127173913043,70.0,0.0,255.0,0.0
20.200000000000145,35.72614587827727,51.27567846416218,1370.0017996113747,6.915489126413377e-05,-2.2833804337096808e-05,0.0,0.0,1.1368683772161603e-12,0.0,343.2039130434782,70.0,0.0,255.0,0.0
20.250000000000146,35.72614933219436,51.27567733630446,1370.001799436286,6.915489132097719e-05,-2.2833804337096808e-05,0.0,5.684341886080801e-13,-1.1368683772161603e-12,0.0,343.19510869565215,70.0,0.0,255.0,0.0
20.300000000000146,35.72615278611318,51.27567620844746,1370.0017992556095,6.915489132097719e-05,-2.2833804450783646e-05,0.0,-5.684341886080801e-13,0.0,0.0,343.1863043478261,70.0,0.0,255.0,0.0
20.350000000000147,35.72615624003376,51.27567508059117,1370.0017990767956,6.915489126413377e-05,-2.2833804337096808e-05,0.0,0.0,2.2737367544323206e-12,0.0,343.17749999999995,70.0,0.0,255.0,0.0
20.400000000000148,35.726159693956035,51.275673952735616,1370.0017988979816,6.915489132097719e-05,-2.283380422340997e-05,0.0,5.684341886080801e-13,0.0,0.0,343.1686956521739,70.0,0.0,255.0,0.0
20.45000000000015,35.726163147880065,51.275672824880786,1370.001798717305,6.915489132097719e-05,-2.2833804337096808e-05,0.0,0.0,-2.2737367544323206e-12,0.0,343.1598913043478,70.0,0.0,255.0,0.0
20.50000000000015,35.72616660180583,51.275671697026674,1370.0017985394225,6.915489132097719e-05,-2.2833804450783646e-05,0.0,0.0,0.0,0.0,343.15108695652174,70.0,0.0,255.0,0.0
20.55000000000015,35.72617005573333,51.27567056917327,1370.0017983615398,6.915489132097719e-05,-2.2833804337096808e-05,0.0,-5.684341886080801e-13,1.1368683772161603e-12,0.0,343.1422826086956,70.0,0.0,255.0,0.0
20.60000000000015,35.72617350966254,51.2756694413206,1370.0017981808633,6.915489126413377e-05,-2.2833804337096808e-05,0.0,0.0,-1.1368683772161603e-12,0.0,343.13347826086954,70.0,0.0,255.0,0.0
20.65000000000015,35.7261769635935,51.27566831346864,1370.0017980020493,6.915489132097719e-05,-2.2833804450783646e-05,0.0,5.684341886080801e-13,0.0,0.0,343.12467391304347,70.0,0.0,255.0,0.0
20.700000000000152,35.726180417526194,51.27566718561741,1370.001797822304,6.915489132097719e-05,-2.2833804337096808e-05,0.0,-5.684341886080801e-13,2.2737367544323206e-12,0.0,343.11586956521734,70.0,0.0,255.0,0.0
20.750000000000153,35.72618387146063,51.2756660577669,1370.0017976425588,6.915489126413377e-05,-2.283380422340997e-05,0.0,0.0,0.0,0.0,343.10706521739127,70.0,0.0,255.0,0.0
20.800000000000153,35.7261873253968,51.2756649299171,1370.0017974618822,6.915489132097719e-05,-2.2833804337096808e-05,0.0,5.684341886080801e-13,-1.1368683772161603e-12,0.0,343.0982608695652,70.0,0.0,255.0,0.0
20.850000000000154,35.7261907793347,51.275663802068024,1370.0017972812057,6.915489132097719e-05,-2.2833804337096808e-05,0.0,0.0,0.0,0.0,343.0894565217391,70.0,0.0,255.0,0.0
20.900000000000155,35.72619423327432,51.27566267421967,1370.0017971023917,6.915489132097719e-05,-2.2833804337096808e-05,0.0,0.0,-1.1368683772161603e-12,0.0,343.080652173913,70.0,0.0,255.0,0.0
20.950000000000156,35.7261976872157,51.27566154637203,1370.0017969217151,6.915489132097719e-05,-2.2833804450783646e-05,0.0,-5.684341886080801e-13,0.0,0.0,343.0718478260869,70.0,0.0,255.0,0.0
21.000000000000156,35.7262011411588,51.275660418525106,1370.0017967401072,6.915489126413377e-05,-2.2833804337096808e-05,0.0,0.0,1.1368683772161603e-12,0.0,343.06304347826085,70.0,0.0,255.0,0.0
21.050000000000157,35.72620459510364,51.2756592906789,1370.0017965584993,6.915489132097719e-05,-2.2833804337096808e-05,0.0,5.684341886080801e-13,0.0,0.0,343.0542391304348,70.0,0.0,255.0,0.0
21.100000000000158,35.72620804905021,51.27565816283341,1370.001796378754,6.915489132097719e-05,-2.2833804337096808e-05,0.0,-5.684341886080801e-13,0.0,0.0,343.04543478260865,70.0,0.0,255.0,0.0
21.15000000000016,35.72621150299851,51.27565703498864,1370.0017961999401,6.915489126413377e-05,-2.2833804337096808e-05,0.0,0.0,0.0,0.0,343.0366304347826,70.0,0.0,255.0,0.0
21.20000000000016,35.726214956948574,51.27565590714459,1370.001796017401,6.915489132097719e-05,-2.2833804337096808e-05,0.0,5.684341886080801e-13,0.0,0.0,343.0278260869565,70.0,0.0,255.0,0.0
21.25000000000016,35.726218410900344,51.27565477930125,1370.0017958376557,6.915489132097719e-05,-2.2833804337096808e-05,0.0,0.0,0.0,0.0,343.0190217391304,70.0,0.0,255.0,0.0
21.30000000000016,35.72622186485386,51.27565365145862,1370.0017956541851,6.915489132097719e-05,-2.2833804337096808e-05,0.0,0.0,0.0,0.0,343.0102173913043,70.0,0.0,255.0,0.0
21.35000000000016,35.72622531880911,51.27565252361673,1370.0017954725772,6.915489132097719e-05,-2.2833804337096808e-05,0.0,-5.684341886080801e-13,-1.1368683772161603e-12,0.0,343.00141304347824,70.0,0.0,255.0,0.0
21.400000000000162,35.72622877276609,51.275651395775526,1370.0017952909693,6.915489126413377e-05,-2.2833804450783646e-05,0.0,0.0,0.0,0.0,342.99260869565217,70.0,0.0,255.0,0.0
21.450000000000163,35.72623222672481,51.27565026793505,1370.0017951093614,6.915489132097719e-05,-2.2833804337096808e-05,0.0,0.0,1.1368683772161603e-12,0.0,342.98380434782604,70.0,0.0,255.0,0.0
21.500000000000163,35.72623568068527,51.27564914009529,1370.0017949258909,6.915489126413377e-05,-2.2833804337096808e-05,0.0,-5.684341886080801e-13,0.0,0.0,342.97499999999997,70.0,0.0,255.0,0.0
21.550000000000164,35.72623913464745,51.27564801225625,1370.0017947452143,6.915489126413377e-05,-2.2833804337096808e-05,0.0,5.684341886080801e-13,1.1368683772161603e-12,0.0,342.9661956521739,70.0,0.0,255.0,0.0
21.600000000000165,35.726242588611385,51.2756468844179,1370.0017945636064,6.915489132097719e-05,-2.283380422340997e-05,0.0,5.684341886080801e-13,0.0,0.0,342.9573913043478,70.0,0.0,255.0,0.0
21.650000000000166,35.72624604257705,51.275645756580296,1370.0017943819985,6.915489132097719e-05,-2.2833804337096808e-05,0.0,-5.684341886080801e-13,-2.2737367544323206e-12,0.0,342.9485869565217,70.0,0.0,255.0,0.0
21.700000000000166,35.72624949654445,51.27564462874338,1370.0017941975966,6.915489126413377e-05,-2.2833804450783646e-05,0.0,0.0,0.0,0.0,342.9397826086956,70.0,0.0,255.0,0.0
21.750000000000167,35.72625295051359,51.27564350090719,1370.00179401692,6.915489132097719e-05,-2.2833804337096808e-05,0.0,5.684341886080801e-13,1.1368683772161603e-12,0.0,342.93097826086955,70.0,0.0,255.0,0.0
21.800000000000168,35.72625640448446,51.27564237307171,1370.0017938334495,6.915489132097719e-05,-2.2833804337096808e-05,0.0,0.0,-1.1368683772161603e-12,0.0,342.9221739130434,70.0,0.0,255.0,0.0
21.85000000000017,35.72625985845707,51.27564124523693,1370.001793649979,6.915489132097719e-05,-2.2833804450783646e-05,0.0,0.0,0.0,0.0,342.91336956521735,70.0,0.0,255.0,0.0
21.90000000000017,35.726263312431406,51.27564011740288,1370.0017934693024,6.915489132097719e-05,-2.2833804337096808e-05,0.0,-5.684341886080801e-13,2.2737367544323206e-12,0.0,342.9045652173913,70.0,0.0,255.0,0.0
21.95000000000017,35.726266766407484,51.275638989569536,1370.0017932849005,6.915489126413377e-05,-2.283380422340997e-05,0.0,0.0,0.0,0.0,342.8957608695652,70.0,0.0,255.0,0.0
22.00000000000017,35.726270220385324,51.2756378617369,1370.0017931023613,6.915489132097719e-05,-2.2833804337096808e-05,0.0,5.684341886080801e-13,-1.1368683772161603e-12,0.0,342.8869565217391,70.0,0.0,255.0,0.0
22.05000000000017,35.72627367436487,51.275636733904975,1370.001792919822,6.915489132097719e-05,-2.2833804337096808e-05,0.0,-5.684341886080801e-13,0.0,0.0,342.878152173913,70.0,0.0,255.0,0.0
22.100000000000172,35.72627712834616,51.27563560607376,1370.0017927354202,6.915489126413377e-05,-2.2833804337096808e-05,0.0,0.0,-1.1368683772161603e-12,0.0,342.86934782608694,70.0,0.0,255.0,0.0
22.150000000000173,35.72628058232918,51.275634478243255,1370.001792552881,6.915489132097719e-05,-2.2833804450783646e-05,0.0,5.684341886080801e-13,-1.1368683772161603e-12,0.0,342.86054347826087,70.0,0.0,255.0,0.0
22.200000000000173,35.726284036313956,51.27563335041345,1370.0017923675478,6.915489132097719e-05,-2.2833804450783646e-05,0.0,0.0,1.1368683772161603e-12,0.0,342.85173913043474,70.0,0.0,255.0,0.0
22.250000000000174,35.726287490300464,51.27563222258437,1370.0017921840772,6.915489132097719e-05,-2.2833804337096808e-05,0.0,0.0,2.2737367544323206e-12,0.0,342.84293478260867,70.0,0.0,255.0,0.0
22.300000000000175,35.7262909442887,51.275631094756,1370.0017920006067,6.915489132097719e-05,-2.283380422340997e-05,0.0,-5.684341886080801e-13,0.0,0.0,342.8341304347826,70.0,0.0,255.0,0.0
22.350000000000176,35.72629439827868,51.27562996692834,1370.0017918152735,6.915489126413377e-05,-2.2833804337096808e-05,0.0,0.0,-1.1368683772161603e-12,0.0,342.82532608695647,70.0,0.0,255.0,0.0
22.400000000000176,35.7262978522704,51.27562883910138,1370.0017916327342,6.915489132097719e-05,-2.2833804337096808e-05,0.0,5.684341886080801e-13,0.0,0.0,342.8165217391304,70.0,0.0,255.0,0.0
22.450000000000177,35.726301306263856,51.275627711275135,1370.0017914464697,6.915489132097719e-05,-2.2833804337096808e-05,0.0,-5.684341886080801e-13,-1.1368683772161603e-12,0.0,342.8077173913043,70.0,0.0,255.0,0.0
22.500000000000178,35.72630476025905,51.2756265834496,1370.0017912648618,6.915489126413377e-05,-2.2833804450783646e-05,0.0,0.0,0.0,0.0,342.79891304347825,70.0,0.0,255.0,0.0
22.55000000000018,35.726308214255965,51.275625455624755,1370.0017910785973,6.915489132097719e-05,-2.2833804337096808e-05,0.0,5.684341886080801e-13,1.1368683772161603e-12,0.0,342.7901086956521,70.0,0.0,255.0,0.0
22.60000000000018,35.72631166825463,51.275624327800635,1370.0017908932641,6.915489132097719e-05,-2.2833804337096808e-05,0.0,0.0,0.0,0.0,342.78130434782605,70.0,0.0,255.0,0.0
22.65000000000018,35.72631512225503,51.27562319997722,1370.0017907088622,6.915489132097719e-05,-2.2833804337096808e-05,0.0,0.0,0.0,0.0,342.7725,70.0,0.0,255.0,0.0
22.70000000000018,35.726318576257185,51.275622072154505,1370.0017905244604,6.915489132097719e-05,-2.2833804337096808e-05,0.0,-5.684341886080801e-13,0.0,0.0,342.7636956521739,70.0,0.0,255.0,0.0
22.75000000000018,35.726322030261045,51.275620944332495,1370.0017903391272,6.915489126413377e-05,-2.2833804337096808e-05,0.0,0.0,0.0,0.0,342.7548913043478,70.0,0.0,255.0,0.0
22.800000000000182,35.726325484266674,51.275619816511195,1370.0017901528627,6.915489132097719e-05,-2.2833804337096808e-05,0.0,5.684341886080801e-13,0.0,0.0,342.7460869565217,70.0,0.0,255.0,0.0
22.850000000000183,35.72632893827403,51.2756186886906,1370.0017899665982,6.915489132097719e-05,-2.2833804337096808e-05,0.0,-5.684341886080801e-13,0.0,0.0,342.73728260869564,70.0,0.0,255.0,0.0
22.900000000000183,35.72633239228312,51.27561756087072,1370.001789784059,6.915489126413377e-05,-2.2833804337096808e-05,0.0,-5.684341886080801e-13,-1.1368683772161603e-12,0.0,342.7284782608695,70.0,0.0,255.0,0.0
22.950000000000184,35.72633584629395,51.27561643305153,1370.001789596863,6.915489126413377e-05,-2.2833804450783646e-05,0.0,5.684341886080801e-13,0.0,0.0,342.71967391304344,70.0,0.0,255.0,0.0
23.000000000000185,35.72633930030651,51.27561530523305,1370.00178941153,6.915489132097719e-05,-2.2833804337096808e-05,0.0,0.0,1.1368683772161603e-12,0.0,342.71086956521737,70.0,0.0,255.0,0.0
23.050000000000185,35.72634275432084,51.27561417741528,1370.0017892252654,6.915489126413377e-05,-2.2833804337096808e-05,0.0,0.0,0.0,0.0,342.7020652173913,70.0,0.0,255.0,0.0
23.100000000000186,35.72634620833687,51.27561304959821,1370.0017890390009,6.915489132097719e-05,-2.2833804337096808e-05,0.0,5.684341886080801e-13,1.1368683772161603e-12,0.0,342.69326086956517,70.0,0.0,255.0,0.0
23.150000000000187,35.726349662354664,51.275611921781845,1370.0017888536677,6.915489132097719e-05,-2.283380422340997e-05,0.0,0.0,0.0,0.0,342.6844565217391,70.0,0.0,255.0,0.0
23.200000000000188,35.72635311637418,51.27561079396619,1370.0017886664718,6.915489132097719e-05,-2.2833804337096808e-05,0.0,0.0,-2.2737367544323206e-12,0.0,342.675652173913,70.0,0.0,255.0,0.0
23.25000000000019,35.726356570395446,51.275609666151226,1370.0017884802073,6.915489132097719e-05,-2.2833804450783646e-05,0.0,-5.684341886080801e-13,0.0,0.0,342.66684782608695,70.0,0.0,255.0,0.0
23.30000000000019,35.72636002441844,51.27560853833696,1370.0017882930115,6.915489126413377e-05,-2.2833804337096808e-05,0.0,0.0,1.1368683772161603e-12,0.0,342.6580434782608,70.0,0.0,255.0,0.0
23.35000000000019,35.72636347844319,51.27560741052341,1370.001788106747,6.915489132097719e-05,-2.2833804337096808e-05,0.0,5.684341886080801e-13,-1.1368683772161603e-12,0.0,342.64923913043475,70.0,0.0,255.0,0.0
23.40000000000019,35.72636693246968,51.27560628271056,1370.0017879176885,6.915489132097719e-05,-2.2833804450783646e-05,0.0,-5.684341886080801e-13,0.0,0.0,342.6404347826087,70.0,0.0,255.0,0.0
23.45000000000019,35.72637038649789,51.27560515489841,1370.001787734218,6.915489126413377e-05,-2.2833804337096808e-05,0.0,0.0,2.2737367544323206e-12,0.0,342.63163043478255,70.0,0.0,255.0,0.0
23.500000000000192,35.72637384052785,51.275604027086956,1370.0017875451595,6.915489132097719e-05,-2.283380422340997e-05,0.0,5.684341886080801e-13,0.0,0.0,342.6228260869565,70.0,0.0,255.0,0.0
23.550000000000193,35.72637729455954,51.27560289927621,1370.001787358895,6.915489132097719e-05,-2.2833804337096808e-05,0.0,0.0,-1.1368683772161603e-12,0.0,342.6140217391304,70.0,0.0,255.0,0.0
23.600000000000193,35.72638074859299,51.27560177146616,1370.0017871707678,6.915489132097719e-05,-2.2833804337096808e-05,0.0,0.0,0.0,0.0,342.60521739130434,70.0,0.0,255.0,0.0
23.650000000000194,35.72638420262816,51.275600643656816,1370.0017869845033,6.915489132097719e-05,-2.2833804337096808e-05,0.0,-5.684341886080801e-13,-1.1368683772161603e-12,0.0,342.5964130434782,70.0,0.0,255.0,0.0
23.700000000000195,35.726387656665075,51.275599515848164,1370.0017867973074,6.915489126413377e-05,-2.2833804450783646e-05,0.0,0.0,0.0,0.0,342.58760869565214,70.0,0.0,255.0,0.0
23.750000000000195,35.72639111070373,51.27559838804023,1370.0017866101116,6.915489132097719e-05,-2.2833804337096808e-05,0.0,5.684341886080801e-13,1.1368683772161603e-12,0.0,342.57880434782606,70.0,0.0,255.0,0.0
23.800000000000196,35.726394564744126,51.27559726023298,1370.001786421053,6.915489132097719e-05,-2.2833804337096808e-05,0.0,-5.684341886080801e-13,0.0,0.0,342.57,70.0,0.0,255.0,0.0
23.850000000000197,35.726398018786284,51.275596132426436,1370.0017862319946,6.915489126413377e-05,-2.2833804337096808e-05,0.0,0.0,0.0,0.0,342.56119565217386,70.0,0.0,255.0,0.0
23.900000000000198,35.72640147283014,51.27559500462057,1370.0017860429361,6.915489132097719e-05,-2.2833804337096808e-05,0.0,5.684341886080801e-13,0.0,0.0,342.5523913043478,70.0,0.0,255.0,0.0
23.9500000000002,35.726404926875766,51.27559387681543,1370.001785854809,6.915489132097719e-05,-2.2833804337096808e-05,0.0,0.0,0.0,0.0,342.5435869565217,70.0,0.0,255.0,0.0
24.0000000000002,35.72640838092311,51.27559274901097,1370.0017856666818,6.915489132097719e-05,-2.2833804337096808e-05,0.0,0.0,-1.1368683772161603e-12,0.0,342.5347826086956,70.0,0.0,255.0,0.0
24.0500000000002,35.72641183497222,51.27559162120722,1370.0017854785547,6.915489132097719e-05,-2.2833804450783646e-05,0.0,-5.684341886080801e-13,0.0,0.0,342.5259782608695,70.0,0.0,255.0,0.0
24.1000000000002,35.726415289023045,51.27559049340415,1370.0017852913588,6.915489126413377e-05,-2.2833804337096808e-05,0.0,0.0,1.1368683772161603e-12,0.0,342.51717391304345,70.0,0.0,255.0,0.0
24.1500000000002,35.726418743075634,51.2755893656018,1370.0017851004377,6.915489132097719e-05,-2.2833804337096808e-05,0.0,5.684341886080801e-13,0.0,0.0,342.5083695652174,70.0,0.0,255.0,0.0
24.200000000000202,35.72642219712994,51.27558823780013,1370.0017849123105,6.915489132097719e-05,-2.2833804337096808e-05,0.0,-5.684341886080801e-13,0.0,0.0,342.49956521739125,70.0,0.0,255.0,0.0
24.250000000000203,35.726425651186005,51.27558710999917,1370.0017847251147,6.915489126413377e-05,-2.2833804337096808e-05,0.0,0.0,0.0,0.0,342.4907608695652,70.0,0.0,255.0,0.0
24.300000000000203,35.726429105243795,51.27558598219889,1370.001784535125,6.915489132097719e-05,-2.2833804337096808e-05,0.0,5.684341886080801e-13,0.0,0.0,342.4819565217391,70.0,0.0,255.0,0.0
24.350000000000204,35.72643255930335,51.27558485439932,1370.0017843442038,6.915489132097719e-05,-2.2833804337096808e-05,0.0,-1.1368683772161603e-12,0.0,0.0,342.47315217391304,70.0,0.0,255.0,0.0
24.400000000000205,35.72643601336462,51.27558372660043,1370.0017841560766,6.915489120729035e-05,-2.2833804337096808e-05,0.0,0.0,0.0,0.0,342.4643478260869,70.0,0.0,255.0,0.0
24.450000000000205,35.72643946742764,51.27558259880226,1370.0017839660868,6.915489132097719e-05,-2.2833804337096808e-05,0.0,1.1368683772161603e-12,-1.1368683772161603e-12,0.0,342.45554347826084,70.0,0.0,255.0,0.0
24.500000000000206,35.726442921492406,51.27558147100476,1370.001783776097,6.915489132097719e-05,-2.2833804450783646e-05,0.0,0.0,0.0,0.0,342.44673913043476,70.0,0.0,255.0,0.0
24.550000000000207,35.726446375558915,51.27558034320797,1370.0017835861072,6.915489132097719e-05,-2.2833804337096808e-05,0.0,0.0,1.1368683772161603e-12,0.0,342.43793478260864,70.0,0.0,255.0,0.0
24.600000000000207,35.726449829627164,51.275579215411874,1370.0017833961174,6.915489132097719e-05,-2.2833804337096808e-05,0.0,-5.684341886080801e-13,0.0,0.0,342.42913043478256,70.0,0.0,255.0,0.0
24.650000000000208,35.72645328369714,51.275578087616466,1370.0017832061276,6.915489126413377e-05,-2.2833804337096808e-05,0.0,0.0,1.1368683772161603e-12,0.0,342.4203260869565,70.0,0.0,255.0,0.0
24.70000000000021,35.72645673776887,51.27557695982175,1370.0017830152065,6.915489132097719e-05,-2.283380422340997e-05,0.0,5.684341886080801e-13,0.0,0.0,342.4115217391304,70.0,0.0,255.0,0.0
24.75000000000021,35.726460191842335,51.27557583202773,1370.0017828252167,6.915489132097719e-05,-2.2833804337096808e-05,0.0,-5.684341886080801e-13,-2.2737367544323206e-12,0.0,342.4027173913043,70.0,0.0,255.0,0.0
24.80000000000021,35.726463645917555,51.275574704234394,1370.0017826352268,6.915489126413377e-05,-2.2833804450783646e-05,0.0,0.0,0.0,0.0,342.3939130434782,70.0,0.0,255.0,0.0
24.85000000000021,35.726467099994494,51.275573576441765,1370.0017824433744,6.915489132097719e-05,-2.2833804337096808e-05,0.0,5.684341886080801e-13,1.1368683772161603e-12,0.0,342.38510869565215,70.0,0.0,255.0,0.0
24.90000000000021,35.7264705540732,51.27557244864983,1370.0017822524533,6.915489132097719e-05,-2.2833804337096808e-05,0.0,0.0,-1.1368683772161603e-12,0.0,342.3763043478261,70.0,0.0,255.0,0.0
24.950000000000212,35.72647400815364,51.275571320858575,1370.0017820615321,6.915489132097719e-05,-2.2833804450783646e-05,0.0,0.0,0.0,0.0,342.36749999999995,70.0,0.0,255.0,0.0
25.000000000000213,35.72647746223581,51.27557019306801,1370.0017818724737,6.915489132097719e-05,-2.2833804337096808e-05,0.0,-5.684341886080801e-13,2.2737367544323206e-12,0.0,342.3586956521739,70.0,0.0,255.0,0.0
25.050000000000214,35.72648091631972,51.27556906527815,1370.0017816796899,6.915489126413377e-05,-2.283380422340997e-05,0.0,0.0,0.0,0.0,342.3498913043478,70.0,0.0,255.0,0.0
25.100000000000215,35.726484370405394,51.27556793748897,1370.0017814897,6.915489132097719e-05,-2.2833804337096808e-05,0.0,5.684341886080801e-13,-1.1368683772161603e-12,0.0,342.3410869565217,70.0,0.0,255.0,0.0
25.150000000000215,35.72648782449281,51.275566809700486,1370.0017812978476,6.915489132097719e-05,-2.2833804337096808e-05,0.0,-5.684341886080801e-13,0.0,0.0,342.3322826086956,70.0,0.0,255.0,0.0
25.200000000000216,35.726491278581946,51.2755656819127,1370.0017811069265,6.915489126413377e-05,-2.2833804337096808e-05,0.0,0.0,-1.1368683772161603e-12,0.0,342.32347826086954,70.0,0.0,255.0,0.0
25.250000000000217,35.72649473267283,51.27556455412558,1370.0017809141427,6.915489132097719e-05,-2.2833804450783646e-05,0.0,5.684341886080801e-13,0.0,0.0,342.31467391304346,70.0,0.0,255.0,0.0
25.300000000000217,35.72649818676546,51.27556342633917,1370.001780721359,6.915489132097719e-05,-2.2833804337096808e-05,0.0,0.0,1.1368683772161603e-12,0.0,342.30586956521734,70.0,0.0,255.0,0.0
25.350000000000218,35.72650164085983,51.275562298553446,1370.0017805313691,6.915489132097719e-05,-2.2833804337096808e-05,0.0,0.0,0.0,0.0,342.29706521739126,70.0,0.0,255.0,0.0
25.40000000000022,35.726505094955954,51.27556117076842,1370.0017803385854,6.915489132097719e-05,-2.2833804337096808e-05,0.0,-5.684341886080801e-13,0.0,0.0,342.2882608695652,70.0,0.0,255.0,0.0
25.45000000000022,35.7265085490538,51.27556004298405,1370.0017801476642,6.915489126413377e-05,-2.2833804337096808e-05,0.0,0.0,0.0,0.0,342.2794565217391,70.0,0.0,255.0,0.0
25.50000000000022,35.72651200315341,51.2755589152004,1370.0017799548805,6.915489132097719e-05,-2.2833804337096808e-05,0.0,5.684341886080801e-13,0.0,0.0,342.270652173913,70.0,0.0,255.0,0.0
25.55000000000022,35.72651545725476,51.27555778741742,1370.0017797620967,6.915489132097719e-05,-2.2833804337096808e-05,0.0,-5.684341886080801e-13,0.0,0.0,342.2618478260869,70.0,0.0,255.0,0.0
25.60000000000022,35.72651891135786,51.275556659635136,1370.0017795683816,6.915489126413377e-05,-2.2833804337096808e-05,0.0,0.0,0.0,0.0,342.25304347826085,70.0,0.0,255.0,0.0
25.650000000000222,35.72652236546268,51.27555553185354,1370.0017793765292,6.915489132097719e-05,-2.2833804337096808e-05,0.0,5.684341886080801e-13,-1.1368683772161603e-12,0.0,342.2442391304347,70.0,0.0,255.0,0.0
25.700000000000223,35.726525819569254,51.275554404072636,1370.0017791837454,6.915489132097719e-05,-2.2833804450783646e-05,0.0,0.0,0.0,0.0,342.23543478260865,70.0,0.0,255.0,0.0
25.750000000000224,35.72652927367756,51.2755532762924,1370.0017789900303,6.915489132097719e-05,-2.2833804337096808e-05,0.0,0.0,1.1368683772161603e-12,0.0,342.2266304347826,70.0,0.0,255.0,0.0
25.800000000000225,35.72653272778762,51.27555214851287,1370.0017787981778,6.915489132097719e-05,-2.2833804337096808e-05,0.0,-1.1368683772161603e-12,0.0,0.0,342.2178260869565,70.0,0.0,255.0,0.0
25.850000000000225,35.726536181899434,51.275551020734014,1370.0017786035314,6.915489120729035e-05,-2.2833804337096808e-05,0.0,0.0,1.1368683772161603e-12,0.0,342.2090217391304,70.0,0.0,255.0,0.0
25.900000000000226,35.72653963601297,51.27554989295585,1370.001778411679,6.915489132097719e-05,-2.283380422340997e-05,0.0,1.1368683772161603e-12,0.0,0.0,342.2002173913043,70.0,0.0,255.0,0.0
25.950000000000227,35.72654309012827,51.27554876517837,1370.0017782161012,6.915489132097719e-05,-2.2833804337096808e-05,0.0,-5.684341886080801e-13,-2.2737367544323206e-12,0.0,342.19141304347824,70.0,0.0,255.0,0.0
26.000000000000227,35.72654654424529,51.27554763740157,1370.0017780223861,6.915489126413377e-05,-2.2833804450783646e-05,0.0,0.0,-1.1368683772161603e-12,0.0,342.18260869565216,70.0,0.0,255.0,0.0
26.050000000000228,35.72654999836407,51.27554650962546,1370.001777828671,6.915489132097719e-05,-2.2833804450783646e-05,0.0,5.684341886080801e-13,1.1368683772161603e-12,0.0,342.17380434782604,70.0,0.0,255.0,0.0
26.10000000000023,35.7265534524846,51.27554538185003,1370.00177763775,6.915489132097719e-05,-2.2833804337096808e-05,0.0,-5.684341886080801e-13,1.1368683772161603e-12,0.0,342.16499999999996,70.0,0.0,255.0,0.0
26.15000000000023,35.72655690660686,51.27554425407529,1370.0017774431035,6.915489126413377e-05,-2.2833804337096808e-05,0.0,0.0,0.0,0.0,342.1561956521739,70.0,0.0,255.0,0.0
26.20000000000023,35.726560360730865,51.27554312630123,1370.001777248457,6.915489132097719e-05,-2.2833804337096808e-05,0.0,5.684341886080801e-13,1.1368683772161603e-12,0.0,342.14739130434776,70.0,0.0,255.0,0.0
26.25000000000023,35.726563814856625,51.27554199852785,1370.0017770538107,6.915489132097719e-05,-2.283380422340997e-05,0.0,0.0,0.0,0.0,342.1385869565217,70.0,0.0,255.0,0.0
26.30000000000023,35.72656726898412,51.27554087075517,1370.0017768591642,6.915489132097719e-05,-2.2833804337096808e-05,0.0,0.0,-2.2737367544323206e-12,0.0,342.1297826086956,70.0,0.0,255.0,0.0
26.350000000000232,35.72657072311337,51.275539742983156,1370.0017766635865,6.915489132097719e-05,-2.2833804450783646e-05,0.0,-5.684341886080801e-13,0.0,0.0,342.12097826086955,70.0,0.0,255.0,0.0
26.400000000000233,35.72657417724434,51.27553861521182,1370.00177646894,6.915489126413377e-05,-2.2833804337096808e-05,0.0,0.0,1.1368683772161603e-12,0.0,342.1121739130434,70.0,0.0,255.0,0.0
26.450000000000234,35.72657763137708,51.27553748744119,1370.001776275225,6.915489132097719e-05,-2.2833804337096808e-05,0.0,5.684341886080801e-13,-1.1368683772161603e-12,0.0,342.10336956521735,70.0,0.0,255.0,0.0
26.500000000000234,35.72658108551155,51.27553635967122,1370.0017760805786,6.915489132097719e-05,-2.2833804450783646e-05,0.0,-5.684341886080801e-13,0.0,0.0,342.0945652173913,70.0,0.0,255.0,0.0
26.550000000000235,35.726584539647774,51.27553523190194,1370.0017758850008,6.915489126413377e-05,-2.2833804337096808e-05,0.0,0.0,2.2737367544323206e-12,0.0,342.0857608695652,70.0,0.0,255.0,0.0
26.600000000000236,35.72658799378573,51.275534104133335,1370.0017756903544,6.915489132097719e-05,-2.283380422340997e-05,0.0,5.684341886080801e-13,0.0,0.0,342.0769565217391,70.0,0.0,255.0,0.0
26.650000000000237,35.72659144792544,51.275532976365426,1370.0017754947767,6.915489132097719e-05,-2.2833804337096808e-05,0.0,0.0,-1.1368683772161603e-12,0.0,342.068152173913,70.0,0.0,255.0,0.0
26.700000000000237,35.7265949020669,51.27553184859818,1370.0017752982676,6.915489132097719e-05,-2.2833804337096808e-05,0.0,0.0,0.0,0.0,342.05934782608693,70.0,0.0,255.0,0.0
26.750000000000238,35.72659835621011,51.275530720831625,1370.0017751036212,6.915489132097719e-05,-2.2833804337096808e-05,0.0,-5.684341886080801e-13,-1.1368683772161603e-12,0.0,342.0505434782608,70.0,0.0,255.0,0.0
26.80000000000024,35.72660181035503,51.275529593065734,1370.0017749080434,6.915489126413377e-05,-2.2833804450783646e-05,0.0,0.0,0.0,0.0,342.04173913043473,70.0,0.0,255.0,0.0
26.85000000000024,35.72660526450172,51.27552846530053,1370.0017747124657,6.915489132097719e-05,-2.2833804337096808e-05,0.0,5.684341886080801e-13,1.1368683772161603e-12,0.0,342.03293478260866,70.0,0.0,255.0,0.0
26.90000000000024,35.72660871865017,51.27552733753602,1370.0017745159566,6.915489132097719e-05,-2.2833804337096808e-05,0.0,-5.684341886080801e-13,0.0,0.0,342.0241304347826,70.0,0.0,255.0,0.0
26.95000000000024,35.726612172800344,51.275526209772174,1370.001774320379,6.915489126413377e-05,-2.2833804337096808e-05,0.0,0.0,0.0,0.0,342.01532608695646,70.0,0.0,255.0,0.0
27.00000000000024,35.72661562695227,51.275525082009,1370.0017741248012,6.915489132097719e-05,-2.2833804337096808e-05,0.0,5.684341886080801e-13,0.0,0.0,342.0065217391304,70.0,0.0,255.0,0.0
27.050000000000242,35.72661908110593,51.27552395424653,1370.0017739273608,6.915489132097719e-05,-2.2833804337096808e-05,0.0,0.0,0.0,0.0,341.9977173913043,70.0,0.0,255.0,0.0
27.100000000000243,35.72662253526134,51.27552282648471,1370.0017737327144,6.915489132097719e-05,-2.2833804337096808e-05,0.0,0.0,0.0,0.0,341.9889130434782,70.0,0.0,255.0,0.0
27.150000000000244,35.72662598941851,51.27552169872357,1370.001773535274,6.915489132097719e-05,-2.2833804337096808e-05,0.0,-5.684341886080801e-13,0.0,0.0,341.9801086956521,70.0,0.0,255.0,0.0
27.200000000000244,35.726629443577416,51.27552057096313,1370.001773338765,6.915489126413377e-05,-2.2833804337096808e-05,0.0,0.0,-1.1368683772161603e-12,0.0,341.97130434782605,70.0,0.0,255.0,0.0
27.250000000000245,35.726632897738064,51.27551944320335,1370.0017731422558,6.915489132097719e-05,-2.2833804450783646e-05,0.0,0.0,0.0,0.0,341.9625,70.0,0.0,255.0,0.0
27.300000000000246,35.72663635190046,51.27551831544425,1370.0017729448155,6.915489126413377e-05,-2.2833804337096808e-05,0.0,-5.684341886080801e-13,1.1368683772161603e-12,0.0,341.95369565217385,70.0,0.0,255.0,0.0
27.350000000000247,35.72663980606461,51.27551718768583,1370.001772747375,6.915489126413377e-05,-2.2833804337096808e-05,0.0,5.684341886080801e-13,0.0,0.0,341.9448913043478,70.0,0.0,255.0,0.0
27.400000000000247,35.72664326023049,51.27551605992809,1370.0017725499347,6.915489132097719e-05,-2.2833804337096808e-05,0.0,5.684341886080801e-13,1.1368683772161603e-12,0.0,341.9360869565217,70.0,0.0,255.0,0.0
27.450000000000248,35.72664671439813,51.275514932171006,1370.001772351563,6.915489132097719e-05,-2.283380422340997e-05,0.0,-5.684341886080801e-13,0.0,0.0,341.92728260869563,70.0,0.0,255.0,0.0
27.50000000000025,35.72665016856751,51.275513804414615,1370.0017721541226,6.915489126413377e-05,-2.2833804337096808e-05,0.0,0.0,-2.2737367544323206e-12,0.0,341.9184782608695,70.0,0.0,255.0,0.0
27.55000000000025,35.72665362273864,51.27551267665889,1370.0017719576135,6.915489132097719e-05,-2.2833804450783646e-05,0.0,5.684341886080801e-13,0.0,0.0,341.90967391304343,70.0,0.0,255.0,0.0
27.60000000000025,35.726657076911515,51.275511548903836,1370.0017717592418,6.915489132097719e-05,-2.2833804337096808e-05,0.0,0.0,1.1368683772161603e-12,0.0,341.90086956521736,70.0,0.0,255.0,0.0
27.65000000000025,35.72666053108614,51.27551042114946,1370.00177156087,6.915489132097719e-05,-2.2833804337096808e-05,0.0,0.0,-1.1368683772161603e-12,0.0,341.89206521739123,70.0,0.0,255.0,0.0
27.70000000000025,35.7266639852625,51.27550929339577,1370.0017713634297,6.915489132097719e-05,-2.2833804450783646e-05,0.0,-5.684341886080801e-13,0.0,0.0,341.88326086956516,70.0,0.0,255.0,0.0
27.750000000000252,35.72666743944062,51.275508165642734,1370.001771165058,6.915489126413377e-05,-2.2833804337096808e-05,0.0,0.0,2.2737367544323206e-12,0.0,341.8744565217391,70.0,0.0,255.0,0.0
27.800000000000253,35.726670893620486,51.275507037890385,1370.001770965755,6.915489132097719e-05,-2.283380422340997e-05,0.0,5.684341886080801e-13,0.0,0.0,341.865652173913,70.0,0.0,255.0,0.0
27.850000000000254,35.72667434780208,51.275505910138705,1370.0017707711086,6.915489132097719e-05,-2.2833804337096808e-05,0.0,-5.684341886080801e-13,-2.2737367544323206e-12,0.0,341.8568478260869,70.0,0.0,255.0,0.0
27.900000000000254,35.72667780198545,51.27550478238769,1370.001770569943,6.915489126413377e-05,-2.2833804450783646e-05,0.0,0.0,0.0,0.0,341.8480434782608,70.0,0.0,255.0,0.0
27.950000000000255,35.72668125617054,51.27550365463735,1370.0017703715712,6.915489132097719e-05,-2.2833804337096808e-05,0.0,5.684341886080801e-13,1.1368683772161603e-12,0.0,341.83923913043475,70.0,0.0,255.0,0.0
28.000000000000256,35.72668471035739,51.275502526887706,1370.0017701713368,6.915489132097719e-05,-2.2833804337096808e-05,0.0,0.0,-1.1368683772161603e-12,0.0,341.8304347826087,70.0,0.0,255.0,0.0
28.050000000000257,35.72668816454599,51.2755013991387,1370.0017699738964,6.915489132097719e-05,-2.2833804450783646e-05,0.0,0.0,0.0,0.0,341.82163043478255,70.0,0.0,255.0,0.0
28.100000000000257,35.726691618736325,51.27550027139038,1370.0017697745934,6.915489132097719e-05,-2.2833804337096808e-05,0.0,-5.684341886080801e-13,2.2737367544323206e-12,0.0,341.8128260869565,70.0,0.0,255.0,0.0
28.150000000000258,35.726695072928415,51.275499143642726,1370.0017695762217,6.915489126413377e-05,-2.283380422340997e-05,0.0,0.0,0.0,0.0,341.8040217391304,70.0,0.0,255.0,0.0
28.20000000000026,35.72669852712226,51.27549801589575,1370.0017693759874,6.915489132097719e-05,-2.2833804337096808e-05,0.0,5.684341886080801e-13,-1.1368683772161603e-12,0.0,341.7952173913043,70.0,0.0,255.0,0.0
28.25000000000026,35.726701981317845,51.27549688814943,1370.001769175753,6.915489132097719e-05,-2.2833804337096808e-05,0.0,-5.684341886080801e-13,0.0,0.0,341.7864130434782,70.0,0.0,255.0,0.0
28.30000000000026,35.72670543551517,51.2754957604038,1370.0017689773813,6.915489126413377e-05,-2.2833804337096808e-05,0.0,0.0,-1.1368683772161603e-12,0.0,341.77760869565213,70.0,0.0,255.0,0.0
28.35000000000026,35.72670888971425,51.27549463265883,1370.001768777147,6.915489132097719e-05,-2.2833804450783646e-05,0.0,5.684341886080801e-13,0.0,0.0,341.76880434782606,70.0,0.0,255.0,0.0
28.40000000000026,35.72671234391508,51.27549350491453,1370.0017685759813,6.915489132097719e-05,-2.2833804337096808e-05,0.0,0.0,1.1368683772161603e-12,0.0,341.75999999999993,70.0,0.0,255.0,0.0
28.450000000000262,35.726715798117645,51.27549237717089,1370.0017683776096,6.915489132097719e-05,-2.2833804337096808e-05,0.0,0.0,0.0,0.0,341.75119565217386,70.0,0.0,255.0,0.0
28.500000000000263,35.726719252321985,51.27549124942793,1370.0017681773752,6.915489132097719e-05,-2.2833804337096808e-05,0.0,-5.684341886080801e-13,0.0,0.0,341.7423913043478,70.0,0.0,255.0,0.0
28.550000000000264,35.726722706528044,51.27549012168563,1370.0017679790035,6.915489126413377e-05,-2.2833804337096808e-05,0.0,0.0,0.0,0.0,341.7335869565217,70.0,0.0,255.0,0.0
28.600000000000264,35.726726160735865,51.27548899394401,1370.0017677759752,6.915489132097719e-05,-2.2833804337096808e-05,0.0,0.0,0.0,0.0,341.7247826086956,70.0,0.0,255.0,0.0
28.650000000000265,35.72672961494543,51.27548786620305,1370.001767579466,6.915489126413377e-05,-2.2833804337096808e-05,0.0,-5.684341886080801e-13,0.0,0.0,341.7159782608695,70.0,0.0,255.0,0.0
28.700000000000266,35.72673306915675,51.27548673846275,1370.0017673745751,6.915489126413377e-05,-2.2833804337096808e-05,0.0,5.684341886080801e-13,0.0,0.0,341.70717391304345,70.0,0.0,255.0,0.0
28.750000000000266,35.72673652336981,51.27548561072314,1370.0017671771348,6.915489132097719e-05,-2.2833804337096808e-05,0.0,5.684341886080801e-13,-1.1368683772161603e-12,0.0,341.6983695652173,70.0,0.0,255.0,0.0
28.800000000000267,35.726739977584614,51.27548448298417,1370.0017669750378,6.915489132097719e-05,-2.2833804450783646e-05,0.0,-5.684341886080801e-13,0.0,0.0,341.68956521739125,70.0,0.0,255.0,0.0
28.850000000000268,35.72674343180118,51.27548335524588,1370.001766773872,6.915489126413377e-05,-2.2833804337096808e-05,0.0,0.0,1.1368683772161603e-12,0.0,341.6807608695652,70.0,0.0,255.0,0.0
28.90000000000027,35.7267468860195,51.275482227508256,1370.001766571775,6.915489132097719e-05,-2.2833804337096808e-05,0.0,5.684341886080801e-13,0.0,0.0,341.6719565217391,70.0,0.0,255.0,0.0
28.95000000000027,35.72675034023955,51.2754810997713,1370.001766369678,6.915489132097719e-05,-2.2833804337096808e-05,0.0,0.0,1.1368683772161603e-12,0.0,341.663152173913,70.0,0.0,255.0,0.0
29.00000000000027,35.72675379446135,51.275479972035,1370.0017661685124,6.915489132097719e-05,-2.283380422340997e-05,0.0,0.0,0.0,0.0,341.6543478260869,70.0,0.0,255.0,0.0
29.05000000000027,35.72675724868492,51.27547884429937,1370.0017659692094,6.915489132097719e-05,-2.2833804337096808e-05,0.0,-5.684341886080801e-13,-2.2737367544323206e-12,0.0,341.64554347826083,70.0,0.0,255.0,0.0
29.10000000000027,35.72676070291021,51.27547771656441,1370.0017657652497,6.915489126413377e-05,-2.2833804450783646e-05,0.0,0.0,0.0,0.0,341.63673913043476,70.0,0.0,255.0,0.0
29.150000000000272,35.72676415713726,51.275476588830095,1370.0017655650154,6.915489132097719e-05,-2.2833804337096808e-05,0.0,5.684341886080801e-13,1.1368683772161603e-12,0.0,341.62793478260863,70.0,0.0,255.0,0.0
29.200000000000273,35.726767611366064,51.27547546109647,1370.001765361987,6.915489132097719e-05,-2.2833804337096808e-05,0.0,-5.684341886080801e-13,-1.1368683772161603e-12,0.0,341.61913043478256,70.0,0.0,255.0,0.0
29.250000000000274,35.726771065596616,51.27547433336348,1370.0017651608214,6.915489126413377e-05,-2.2833804450783646e-05,0.0,0.0,0.0,0.0,341.6103260869565,70.0,0.0,255.0,0.0
29.300000000000274,35.726774519828915,51.27547320563117,1370.0017649587244,6.915489132097719e-05,-2.2833804337096808e-05,0.0,5.684341886080801e-13,2.2737367544323206e-12,0.0,341.60152173913036,70.0,0.0,255.0,0.0
29.350000000000275,35.72677797406297,51.27547207789953,1370.0017647566274,6.915489132097719e-05,-2.283380422340997e-05,0.0,0.0,0.0,0.0,341.5927173913043,70.0,0.0,255.0,0.0
29.400000000000276,35.72678142829876,51.27547095016854,1370.001764553599,6.915489132097719e-05,-2.2833804337096808e-05,0.0,0.0,-1.1368683772161603e-12,0.0,341.5839130434782,70.0,0.0,255.0,0.0
29.450000000000276,35.72678488253632,51.275469822438225,1370.001764351502,6.915489132097719e-05,-2.2833804337096808e-05,0.0,-5.684341886080801e-13,0.0,0.0,341.57510869565215,70.0,0.0,255.0,0.0
29.500000000000277,35.726788336775606,51.275468694708564,1370.0017641503364,6.915489126413377e-05,-2.2833804337096808e-05,0.0,0.0,-1.1368683772161603e-12,0.0,341.566304347826,70.0,0.0,255.0,0.0
29.550000000000278,35.72679179101666,51.275467566979565,1370.0017639463767,6.915489132097719e-05,-2.2833804450783646e-05,0.0,5.684341886080801e-13,0.0,0.0,341.55749999999995,70.0,0.0,255.0,0.0
29.60000000000028,35.726795245259446,51.27546643925122,1370.0017637442797,6.915489132097719e-05,-2.2833804337096808e-05,0.0,-5.684341886080801e-13,1.1368683772161603e-12,0.0,341.5486956521739,70.0,0.0,255.0,0.0
29.65000000000028,35.726798699504,51.27546531152355,1370.0017635393888,6.915489126413377e-05,-2.2833804337096808e-05,0.0,0.0,0.0,0.0,341.5398913043478,70.0,0.0,255.0,0.0
29.70000000000028,35.72680215375029,51.27546418379653,1370.001763338223,6.915489132097719e-05,-2.2833804337096808e-05,0.0,5.684341886080801e-13,0.0,0.0,341.5310869565217,70.0,0.0,255.0,0.0
29.75000000000028,35.72680560799835,51.27546305607017,1370.0017631333321,6.915489132097719e-05,-2.2833804337096808e-05,0.0,0.0,0.0,0.0,341.5222826086956,70.0,0.0,255.0,0.0
29.80000000000028,35.72680906224814,51.27546192834448,1370.0017629312351,6.915489132097719e-05,-2.2833804337096808e-05,0.0,0.0,0.0,0.0,341.51347826086953,70.0,0.0,255.0,0.0
29.850000000000282,35.726812516499685,51.27546080061944,1370.0017627272755,6.915489132097719e-05,-2.2833804337096808e-05,0.0,-5.684341886080801e-13,-1.1368683772161603e-12,0.0,341.5046739130434,70.0,0.0,255.0,0.0
29.900000000000283,35.72681597075298,51.27545967289507,1370.0017625233158,6.915489126413377e-05,-2.2833804450783646e-05,0.0,0.0,0.0,0.0,341.49586956521733,70.0,0.0,255.0,0.0
29.950000000000284,35.72681942500803,51.27545854517134,1370.0017623184249,6.915489132097719e-05,-2.2833804337096808e-05,0.0,5.684341886080801e-13,1.1368683772161603e-12,0.0,341.48706521739126,70.0,0.0,255.0,0.0
30.000000000000284,35.72682287926482,51.27545741744829,1370.0017621153966,6.915489132097719e-05,-2.2833804337096808e-05,0.0,-5.684341886080801e-13,0.0,0.0,341.4782608695652,70.0,0.0,255.0,0.0
30.050000000000285,35.72682633352338,51.27545628972588,1370.0017619105056,6.915489126413377e-05,-2.2833804337096808e-05,0.0,-5.684341886080801e-13,0.0,0.0,341.46945652173906,70.0,0.0,255.0,0.0
30.100000000000286,35.726829787783664,51.27545516200414,1370.0017617074773,6.915489126413377e-05,-2.2833804337096808e-05,0.0,5.684341886080801e-13,0.0,0.0,341.460652173913,70.0,0.0,255.0,0.0
30.150000000000286,35.726833242045714,51.27545403428306,1370.0017615035176,6.915489132097719e-05,-2.2833804337096808e-05,0.0,0.0,0.0,0.0,341.4518478260869,70.0,0.0,255.0,0.0
30.200000000000287,35.726836696309526,51.275452906562634,1370.0017612986267,6.915489126413377e-05,-2.2833804337096808e-05,0.0,0.0,0.0,0.0,341.44304347826085,70.0,0.0,255.0,0.0
30.250000000000288,35.72684015057507,51.275451778842864,1370.001761094667,6.915489132097719e-05,-2.2833804337096808e-05,0.0,5.684341886080801e-13,0.0,0.0,341.4342391304347,70.0,0.0,255.0,0.0
30.30000000000029,35.72684360484236,51.275450651123755,1370.0017608907074,6.915489132097719e-05,-2.2833804337096808e-05,0.0,0.0,-1.1368683772161603e-12,0.0,341.42543478260865,70.0,0.0,255.0,0.0
30.35000000000029,35.72684705911141,51.275449523405285,1370.0017606839538,6.915489132097719e-05,-2.2833804450783646e-05,0.0,0.0,0.0,0.0,341.4166304347826,70.0,0.0,255.0,0.0
30.40000000000029,35.726850513382225,51.27544839568749,1370.0017604790628,6.915489132097719e-05,-2.2833804337096808e-05,0.0,-5.684341886080801e-13,1.1368683772161603e-12,0.0,341.40782608695645,70.0,0.0,255.0,0.0
30.45000000000029,35.72685396765478,51.27544726797034,1370.0017602741718,6.915489126413377e-05,-2.2833804337096808e-05,0.0,0.0,0.0,0.0,341.3990217391304,70.0,0.0,255.0,0.0
30.50000000000029,35.72685742192908,51.27544614025386,1370.0017600702122,6.915489132097719e-05,-2.2833804337096808e-05,0.0,5.684341886080801e-13,1.1368683772161603e-12,0.0,341.3902173913043,70.0,0.0,255.0,0.0
30.550000000000292,35.72686087620513,51.275445012538015,1370.0017598653212,6.915489132097719e-05,-2.283380422340997e-05,0.0,-5.684341886080801e-13,0.0,0.0,341.38141304347823,70.0,0.0,255.0,0.0
30.600000000000293,35.726864330482954,51.27544388482284,1370.0017596576363,6.915489126413377e-05,-2.2833804337096808e-05,0.0,0.0,-2.2737367544323206e-12,0.0,341.3726086956521,70.0,0.0,255.0,0.0
30.650000000000293,35.726867784762504,51.275442757108316,1370.0017594536766,6.915489132097719e-05,-2.2833804450783646e-05,0.0,5.684341886080801e-13,0.0,0.0,341.36380434782603,70.0,0.0,255.0,0.0
30.700000000000294,35.72687123904382,51.275441629394436,1370.001759246923,6.915489132097719e-05,-2.2833804337096808e-05,0.0,0.0,1.1368683772161603e-12,0.0,341.35499999999996,70.0,0.0,255.0,0.0
30.750000000000295,35.72687469332687,51.275440501681224,1370.0017590429634,6.915489132097719e-05,-2.2833804337096808e-05,0.0,0.0,-1.1368683772161603e-12,0.0,341.3461956521739,70.0,0.0,255.0,0.0
30.800000000000296,35.72687814761169,51.27543937396866,1370.0017588362098,6.915489132097719e-05,-2.2833804450783646e-05,0.0,-5.684341886080801e-13,0.0,0.0,341.33739130434776,70.0,0.0,255.0,0.0
30.850000000000296,35.726881601898256,51.27543824625675,1370.0017586294562,6.915489126413377e-05,-2.2833804337096808e-05,0.0,0.0,2.2737367544323206e-12,0.0,341.3285869565217,70.0,0.0,255.0,0.0
30.900000000000297,35.726885056186575,51.2754371185455,1370.0017584227026,6.915489132097719e-05,-2.283380422340997e-05,0.0,5.684341886080801e-13,0.0,0.0,341.3197826086956,70.0,0.0,255.0,0.0
30.950000000000298,35.72688851047665,51.27543599083487,1370.001758215949,6.915489132097719e-05,-2.2833804337096808e-05,0.0,-5.684341886080801e-13,-1.1368683772161603e-12,0.0,341.3109782608695,70.0,0.0,255.0,0.0
31.0000000000003,35.72689196476847,51.27543486312492,1370.001758011058,6.915489126413377e-05,-2.2833804337096808e-05,0.0,0.0,0.0,0.0,341.3021739130434,70.0,0.0,255.0,0.0
31.0500000000003,35.726895419062025,51.27543373541563,1370.001757803373,6.915489132097719e-05,-2.2833804337096808e-05,0.0,5.684341886080801e-13,-1.1368683772161603e-12,0.0,341.29336956521735,70.0,0.0,255.0,0.0
31.1000000000003,35.726898873357364,51.27543260770697,1370.0017575975507,6.915489132097719e-05,-2.2833804450783646e-05,0.0,0.0,0.0,0.0,341.2845652173913,70.0,0.0,255.0,0.0
31.1500000000003,35.726902327654436,51.275431479998964,1370.0017573898658,6.915489132097719e-05,-2.2833804337096808e-05,0.0,0.0,1.1368683772161603e-12,0.0,341.27576086956515,70.0,0.0,255.0,0.0
31.2000000000003,35.72690578195327,51.27543035229163,1370.0017571831122,6.915489132097719e-05,-2.2833804337096808e-05,0.0,-5.684341886080801e-13,0.0,0.0,341.2669565217391,70.0,0.0,255.0,0.0
31.250000000000302,35.72690923625385,51.275429224584926,1370.0017569754273,6.915489126413377e-05,-2.2833804337096808e-05,0.0,0.0,0.0,0.0,341.258152173913,70.0,0.0,255.0,0.0
31.300000000000303,35.72691269055619,51.275428096878876,1370.001756769605,6.915489132097719e-05,-2.2833804337096808e-05,0.0,5.684341886080801e-13,0.0,0.0,341.24934782608693,70.0,0.0,255.0,0.0
31.350000000000303,35.72691614486027,51.27542696917348,1370.00175656192,6.915489132097719e-05,-2.2833804337096808e-05,0.0,-5.684341886080801e-13,0.0,0.0,341.2405434782608,70.0,0.0,255.0,0.0
31.400000000000304,35.726919599166116,51.275425841468724,1370.0017563533038,6.915489126413377e-05,-2.2833804337096808e-05,0.0,0.0,0.0,0.0,341.23173913043473,70.0,0.0,255.0,0.0
31.450000000000305,35.726923053473705,51.27542471376463,1370.0017561465502,6.915489132097719e-05,-2.2833804337096808e-05,0.0,5.684341886080801e-13,0.0,0.0,341.22293478260866,70.0,0.0,255.0,0.0
31.500000000000306,35.72692650778305,51.27542358606118,1370.0017559397966,6.915489132097719e-05,-2.2833804337096808e-05,0.0,-1.1368683772161603e-12,-1.1368683772161603e-12,0.0,341.21413043478253,70.0,0.0,255.0,0.0
31.550000000000306,35.726929962094154,51.27542245835838,1370.0017557311803,6.915489120729035e-05,-2.2833804450783646e-05,0.0,0.0,0.0,0.0,341.20532608695646,70.0,0.0,255.0,0.0
31.600000000000307,35.726933416407,51.275421330656215,1370.0017555216327,6.915489132097719e-05,-2.2833804337096808e-05,0.0,1.1368683772161603e-12,1.1368683772161603e-12,0.0,341.1965217391304,70.0,0.0,255.0,0.0
31.650000000000308,35.726936870721616,51.27542020295471,1370.0017553139478,6.915489132097719e-05,-2.2833804337096808e-05,0.0,0.0,0.0,0.0,341.1877173913043,70.0,0.0,255.0,0.0
31.70000000000031,35.72694032503795,51.27541907525385,1370.0017551062629,6.915489132097719e-05,-2.2833804337096808e-05,0.0,0.0,0.0,0.0,341.1789130434782,70.0,0.0,255.0,0.0
31.75000000000031,35.72694377935607,51.275417947553635,1370.001754898578,6.915489132097719e-05,-2.2833804337096808e-05,0.0,-5.684341886080801e-13,0.0,0.0,341.1701086956521,70.0,0.0,255.0,0.0
31.80000000000031,35.72694723367594,51.275416819854065,1370.0017546899617,6.915489126413377e-05,-2.2833804337096808e-05,0.0,0.0,0.0,0.0,341.16130434782605,70.0,0.0,255.0,0.0
31.85000000000031,35.726950687997565,51.27541569215516,1370.001754480414,6.915489132097719e-05,-2.2833804337096808e-05,0.0,5.684341886080801e-13,-1.1368683772161603e-12,0.0,341.1525,70.0,0.0,255.0,0.0
31.90000000000031,35.72695414232093,51.275414564456874,1370.0017542727292,6.915489132097719e-05,-2.2833804450783646e-05,0.0,-5.684341886080801e-13,0.0,0.0,341.14369565217385,70.0,0.0,255.0,0.0
31.950000000000312,35.726957596646045,51.27541343675925,1370.0017540631816,6.915489126413377e-05,-2.2833804337096808e-05,0.0,0.0,1.1368683772161603e-12,1.8189894035458306e-11,341.1348913043478,70.0,0.0,255.0,0.0
32.00000000000031,35.726961050972925,51.27541230906226,1370.0017538554966,6.915489132097719e-05,-2.2833804337096808e-05,1.8189894035458565e-12,0.0,0.0,1.818989403545766e-11,341.1260869565217,70.0,0.0,255.0,0.0
32.05000000000031,35.72696450530157,51.27541118136593,1370.0017536450177,6.915489126413377e-05,-2.2833804337096808e-05,1.8189894035458565e-12,0.0,0.0,-1.818989403545572e-11,341.1172826086956,70.0,0.0,255.0,0.0
32.100000000000314,35.726967959631935,51.275410053670235,1370.0017534354702,6.915489132097719e-05,-2.2833804337096808e-05,0.0,5.684341886080801e-13,0.0,-3.637978807091403e-11,341.1084782608695,70.0,0.0,255.0,0.0
32.15000000000032,35.72697141396407,51.2754089259752,1370.001753226854,6.915489132097719e-05,-2.2833804337096808e-05,-1.8189894035458565e-12,0.0,0.0,5.169878828456276e-24,341.09967391304343,70.0,0.0,255.0,0.0
32.200000000000315,35.72697486829798,51.27540779828078,1370.001753016375,6.915489132097719e-05,-2.2833804337096808e-05,0.0,0.0,0.0,3.63797880709192e-11,341.09086956521736,70.0,0.0,255.0,0.0
32.25000000000031,35.72697832263362,51.27540667058703,1370.0017528077587,6.915489132097719e-05,-2.2833804337096808e-05,1.8189894035458565e-12,0.0,0.0,5.169878828456276e-24,341.08206521739123,70.0,0.0,255.0,0.0
32.30000000000032,35.726981776971016,51.27540554289393,1370.0017525982112,6.915489132097719e-05,-2.2833804337096808e-05,0.0,0.0,-1.1368683772161603e-12,-3.637978807091403e-11,341.07326086956516,70.0,0.0,255.0,0.0
32.35000000000032,35.726985231310174,51.275404415201436,1370.0017523877323,6.915489132097719e-05,-2.2833804450783646e-05,-1.8189894035458565e-12,0.0,0.0,5.169878828456276e-24,341.0644565217391,70.0,0.0,255.0,0.0
32.40000000000032,35.72698868565108,51.275403287509604,1370.0017521772534,6.915489132097719e-05,-2.2833804337096808e-05,0.0,-5.684341886080801e-13,2.2737367544323206e-12,3.63797880709192e-11,341.055652173913,70.0,0.0,255.0,0.0
32.450000000000315,35.72699213999375,51.27540215981843,1370.001751968637,6.915489126413377e-05,-2.283380422340997e-05,1.8189894035458565e-12,0.0,-1.1368683772161603e-12,5.169878828456276e-24,341.0468478260869,70.0,0.0,255.0,0.0
32.50000000000032,35.726995594338156,51.27540103212789,1370.0017517562956,6.915489132097719e-05,-2.2833804450783646e-05,0.0,5.684341886080801e-13,-1.1368683772161603e-12,-3.637978807091403e-11,341.0380434782608,70.0,0.0,255.0,0.0
32.550000000000324,35.72699904868434,51.275399904437975,1370.0017515476793,6.915489132097719e-05,-2.2833804337096808e-05,-1.8189894035458565e-12,0.0,1.1368683772161603e-12,5.169878828456276e-24,341.02923913043475,70.0,0.0,255.0,0.0
32.60000000000032,35.727002503032274,51.27539877674872,1370.001751336269,6.915489132097719e-05,-2.2833804337096808e-05,0.0,0.0,-1.1368683772161603e-12,3.63797880709192e-11,341.0204347826086,70.0,0.0,255.0,0.0
32.65000000000032,35.72700595738195,51.275397649060096,1370.0017511257902,6.915489132097719e-05,-2.2833804450783646e-05,1.8189894035458565e-12,0.0,1.1368683772161603e-12,5.169878828456276e-24,341.01163043478255,70.0,0.0,255.0,0.0
32.70000000000032,35.72700941173338,51.275396521372116,1370.00175091438,6.915489132097719e-05,-2.283380422340997e-05,0.0,0.0,1.1368683772161603e-12,-3.637978807091403e-11,341.0028260869565,70.0,0.0,255.0,0.0
32.75000000000033,35.72701286608658,51.275395393684775,1370.0017507029697,6.915489132097719e-05,-2.2833804337096808e-05,-1.8189894035458565e-12,0.0,-2.2737367544323206e-12,5.169878828456276e-24,340.9940217391304,70.0,0.0,255.0,0.0
32.800000000000324,35.72701632044152,51.27539426599808,1370.0017504934222,6.915489132097719e-05,-2.2833804450783646e-05,0.0,-5.684341886080801e-13,0.0,3.63797880709192e-11,340.9852173913043,70.0,0.0,255.0,0.0
32.85000000000032,35.72701977479822,51.27539313831202,1370.0017502810806,6.915489126413377e-05,-2.2833804337096808e-05,1.8189894035458565e-12,0.0,1.1368683772161603e-12,5.169878828456276e-24,340.9764130434782,70.0,0.0,255.0,0.0
32.900000000000325,35.72702322915667,51.275392010626604,1370.001750071533,6.915489132097719e-05,-2.2833804337096808e-05,0.0,5.684341886080801e-13,0.0,-3.637978807091403e-11,340.96760869565213,70.0,0.0,255.0,0.0
32.95000000000033,35.7270266835169,51.27539088294182,1370.0017498582602,6.915489132097719e-05,-2.2833804337096808e-05,-1.8189894035458565e-12,-5.684341886080801e-13,0.0,5.169878828456276e-24,340.958804347826,70.0,0.0,255.0,0.0
33.00000000000033,35.72703013787886,51.27538975525768,1370.0017496459186,6.915489126413377e-05,-2.2833804337096808e-05,0.0,0.0,0.0,3.63797880709192e-11,340.94999999999993,70.0,0.0,255.0,0.0
33.050000000000324,35.72703359224257,51.27538862757417,1370.001749436371,6.915489132097719e-05,-2.2833804337096808e-05,1.8189894035458565e-12,0.0,0.0,5.169878828456276e-24,340.94119565217386,70.0,0.0,255.0,0.0
33.10000000000033,35.72703704660806,51.27538749989131,1370.0017492230982,6.915489126413377e-05,-2.2833804337096808e-05,0.0,0.0,0.0,-3.637978807091403e-11,340.9323913043478,70.0,0.0,255.0,0.0
33.15000000000033,35.727040500975285,51.275386372209084,1370.0017490126193,6.915489132097719e-05,-2.2833804337096808e-05,-1.8189894035458565e-12,0.0,0.0,5.169878828456276e-24,340.92358695652166,70.0,0.0,255.0,0.0
33.20000000000033,35.72704395534428,51.2753852445275,1370.0017487993464,6.915489126413377e-05,-2.2833804337096808e-05,0.0,-5.684341886080801e-13,0.0,3.63797880709192e-11,340.9147826086956,70.0,0.0,255.0,0.0
33.25000000000033,35.72704740971502,51.27538411684654,1370.0017485879362,6.915489126413377e-05,-2.2833804337096808e-05,1.8189894035458565e-12,5.684341886080801e-13,0.0,5.169878828456276e-24,340.9059782608695,70.0,0.0,255.0,0.0
33.30000000000033,35.727050864087516,51.275382989166225,1370.0017483755946,6.915489132097719e-05,-2.2833804337096808e-05,0.0,5.684341886080801e-13,0.0,-3.637978807091403e-11,340.89717391304345,70.0,0.0,255.0,0.0
33.350000000000335,35.72705431846178,51.27538186148655,1370.001748163253,6.915489132097719e-05,-2.2833804337096808e-05,-1.8189894035458565e-12,0.0,0.0,5.169878828456276e-24,340.8883695652173,70.0,0.0,255.0,0.0
33.40000000000033,35.72705777283779,51.27538073380751,1370.0017479509115,6.915489132097719e-05,-2.2833804337096808e-05,0.0,0.0,-1.1368683772161603e-12,3.63797880709192e-11,340.87956521739125,70.0,0.0,255.0,0.0
33.45000000000033,35.72706122721554,51.27537960612909,1370.0017477376387,6.915489132097719e-05,-2.2833804450783646e-05,1.8189894035458565e-12,-5.684341886080801e-13,0.0,5.169878828456276e-24,340.8707608695652,70.0,0.0,255.0,0.0
33.500000000000334,35.72706468159509,51.27537847845133,1370.0017475262284,6.915489126413377e-05,-2.2833804337096808e-05,0.0,0.0,1.1368683772161603e-12,-3.637978807091403e-11,340.8619565217391,70.0,0.0,255.0,0.0
33.55000000000034,35.72706813597636,51.27537735077419,1370.0017473129556,6.915489132097719e-05,-2.2833804337096808e-05,-1.8189894035458565e-12,0.0,-1.1368683772161603e-12,5.169878828456276e-24,340.853152173913,70.0,0.0,255.0,0.0
33.600000000000335,35.727071590359394,51.275376223097695,1370.0017470987514,6.915489126413377e-05,-2.2833804450783646e-05,0.0,-5.684341886080801e-13,1.1368683772161603e-12,3.63797880709192e-11,340.8443478260869,70.0,0.0,255.0,0.0
33.65000000000033,35.72707504474418,51.27537509542182,1370.0017468854785,6.915489126413377e-05,-2.283380422340997e-05,1.8189894035458565e-12,5.684341886080801e-13,1.1368683772161603e-12,5.169878828456276e-24,340.83554347826083,70.0,0.0,255.0,0.0
33.70000000000034,35.727078499130734,51.2753739677466,1370.001746673137,6.915489132097719e-05,-2.2833804337096808e-05,0.0,5.684341886080801e-13,-2.2737367544323206e-12,-3.637978807091403e-11,340.8267391304347,70.0,0.0,255.0,0.0
33.75000000000034,35.72708195351904,51.275372840072,1370.0017464589328,6.915489132097719e-05,-2.2833804450783646e-05,-1.8189894035458565e-12,0.0,0.0,5.169878828456276e-24,340.81793478260863,70.0,0.0,255.0,0.0
33.80000000000034,35.727085407909094,51.27537171239803,1370.00174624566,6.915489132097719e-05,-2.2833804337096808e-05,0.0,0.0,1.1368683772161603e-12,3.63797880709192e-11,340.80913043478256,70.0,0.0,255.0,0.0
33.850000000000335,35.72708886230092,51.27537058472471,1370.0017460314557,6.915489132097719e-05,-2.2833804337096808e-05,1.8189894035458565e-12,-5.684341886080801e-13,0.0,5.169878828456276e-24,340.8003260869565,70.0,0.0,255.0,0.0
33.90000000000034,35.727092316694495,51.27536945705201,1370.0017458181828,6.915489126413377e-05,-2.2833804337096808e-05,0.0,0.0,0.0,-3.637978807091403e-11,340.79152173913036,70.0,0.0,255.0,0.0
33.950000000000344,35.727095771089814,51.27536832937994,1370.0017456030473,6.915489132097719e-05,-2.2833804337096808e-05,-1.8189894035458565e-12,0.0,0.0,5.169878828456276e-24,340.7827173913043,70.0,0.0,255.0,0.0
34.00000000000034,35.7270992254869,51.27536720170851,1370.0017453907058,6.915489126413377e-05,-2.2833804337096808e-05,0.0,-5.684341886080801e-13,0.0,3.63797880709192e-11,340.7739130434782,70.0,0.0,255.0,0.0
34.05000000000034,35.72710267988576,51.275366074037706,1370.0017451755702,6.915489126413377e-05,-2.2833804337096808e-05,1.8189894035458565e-12,5.684341886080801e-13,0.0,5.169878828456276e-24,340.76510869565215,70.0,0.0,255.0,0.0
34.10000000000034,35.72710613428636,51.27536494636753,1370.001744961366,6.915489132097719e-05,-2.2833804337096808e-05,0.0,5.684341886080801e-13,0.0,-3.637978807091403e-11,340.756304347826,70.0,0.0,255.0,0.0
34.15000000000035,35.72710958868871,51.275363818698004,1370.0017447471619,6.915489132097719e-05,-2.2833804337096808e-05,-1.8189894035458565e-12,0.0,0.0,5.169878828456276e-24,340.74749999999995,70.0,0.0,255.0,0.0
34.200000000000344,35.72711304309283,51.27536269102909,1370.0017445329577,6.915489132097719e-05,-2.2833804337096808e-05,0.0,0.0,0.0,3.63797880709192e-11,340.7386956521739,70.0,0.0,255.0,0.0
34.25000000000034,35.7271164974987,51.27536156336081,1370.0017443178222,6.915489132097719e-05,-2.2833804337096808e-05,1.8189894035458565e-12,-5.684341886080801e-13,0.0,5.169878828456276e-24,340.72989130434775,70.0,0.0,255.0,0.0
34.300000000000345,35.72711995190633,51.27536043569317,1370.0017441026866,6.915489126413377e-05,-2.2833804337096808e-05,0.0,0.0,-1.1368683772161603e-12,-3.637978807091403e-11,340.7210869565217,70.0,0.0,255.0,0.0
34.35000000000035,35.72712340631571,51.27535930802615,1370.0017438866198,6.915489132097719e-05,-2.2833804450783646e-05,-1.8189894035458565e-12,0.0,0.0,5.169878828456276e-24,340.7122826086956,70.0,0.0,255.0,0.0
34.40000000000035,35.72712686072686,51.27535818035976,1370.0017436742783,6.915489126413377e-05,-2.2833804337096808e-05,0.0,-1.1368683772161603e-12,2.2737367544323206e-12,3.63797880709192e-11,340.70347826086953,70.0,0.0,255.0,0.0
34.450000000000344,35.72713031513977,51.275357052694005,1370.00174345728,6.915489120729035e-05,-2.283380422340997e-05,1.8189894035458565e-12,5.684341886080801e-13,-1.1368683772161603e-12,5.169878828456276e-24,340.6946739130434,70.0,0.0,255.0,0.0
34.50000000000035,35.72713376955442,51.275355925028876,1370.001743243076,6.915489132097719e-05,-2.2833804450783646e-05,0.0,1.1368683772161603e-12,-1.1368683772161603e-12,-3.637978807091403e-11,340.68586956521733,70.0,0.0,255.0,0.0
34.55000000000035,35.727137223970836,51.27535479736438,1370.001743027009,6.915489132097719e-05,-2.2833804337096808e-05,-1.8189894035458565e-12,0.0,2.2737367544323206e-12,5.169878828456276e-24,340.67706521739126,70.0,0.0,255.0,0.0
34.60000000000035,35.727140678389006,51.27535366970051,1370.0017428118736,6.915489132097719e-05,-2.283380422340997e-05,0.0,-5.684341886080801e-13,-1.1368683772161603e-12,3.63797880709192e-11,340.66826086956513,70.0,0.0,255.0,0.0
34.65000000000035,35.72714413280895,51.27535254203726,1370.0017425958067,6.915489126413377e-05,-2.2833804450783646e-05,1.8189894035458565e-12,-5.684341886080801e-13,-1.1368683772161603e-12,5.169878828456276e-24,340.65945652173906,70.0,0.0,255.0,0.0
34.70000000000035,35.72714758723064,51.27535141437464,1370.0017423806712,6.915489126413377e-05,-2.2833804337096808e-05,0.0,5.684341886080801e-13,1.1368683772161603e-12,-3.637978807091403e-11,340.650652173913,70.0,0.0,255.0,0.0
34.750000000000355,35.727151041654096,51.27535028671265,1370.0017421646044,6.915489132097719e-05,-2.2833804337096808e-05,-1.8189894035458565e-12,0.0,-1.1368683772161603e-12,5.169878828456276e-24,340.6418478260869,70.0,0.0,255.0,0.0
34.80000000000035,35.727154496079294,51.275349159051295,1370.0017419476062,6.915489126413377e-05,-2.2833804450783646e-05,0.0,0.0,1.1368683772161603e-12,3.63797880709192e-11,340.6330434782608,70.0,0.0,255.0,0.0
34.85000000000035,35.72715795050625,51.27534803139056,1370.0017417324707,6.915489132097719e-05,-2.283380422340997e-05,1.8189894035458565e-12,5.684341886080801e-13,1.1368683772161603e-12,5.169878828456276e-24,340.6242391304347,70.0,0.0,255.0,0.0
34.900000000000354,35.72716140493498,51.27534690373045,1370.0017415164039,6.915489132097719e-05,-2.2833804337096808e-05,0.0,0.0,-2.2737367544323206e-12,-3.637978807091403e-11,340.61543478260865,70.0,0.0,255.0,0.0
34.95000000000036,35.727164859365466,51.275345776070964,1370.0017412994057,6.915489132097719e-05,-2.2833804450783646e-05,-1.8189894035458565e-12,0.0,0.0,5.169878828456276e-24,340.6066304347826,70.0,0.0,255.0,0.0
35.000000000000355,35.7271683137977,51.275344648412116,1370.0017410833389,6.915489132097719e-05,-2.2833804337096808e-05,0.0,-5.684341886080801e-13,1.1368683772161603e-12,3.63797880709192e-11,340.59782608695645,70.0,0.0,255.0,0.0
35.05000000000035,35.7271717682317,51.275343520753886,1370.001740867272,6.915489126413377e-05,-2.2833804337096808e-05,1.8189894035458565e-12,-5.684341886080801e-13,0.0,5.169878828456276e-24,340.5890217391304,70.0,0.0,255.0,0.0
35.10000000000036,35.72717522266747,51.27534239309628,1370.0017406493425,6.915489126413377e-05,-2.2833804337096808e-05,0.0,5.684341886080801e-13,0.0,-3.637978807091403e-11,340.5802173913043,70.0,0.0,255.0,0.0
35.15000000000036,35.727178677104966,51.27534126543929,1370.0017404323444,6.915489132097719e-05,-2.2833804337096808e-05,-1.8189894035458565e-12,0.0,0.0,5.169878828456276e-24,340.5714130434782,70.0,0.0,255.0,0.0
35.20000000000036,35.72718213154424,51.27534013778294,1370.0017402153462,6.915489126413377e-05,-2.2833804337096808e-05,0.0,0.0,0.0,3.63797880709192e-11,340.5626086956521,70.0,0.0,255.0,0.0
35.250000000000355,35.72718558598528,51.2753390101272,1370.001739998348,6.915489132097719e-05,-2.2833804337096808e-05,1.8189894035458565e-12,5.684341886080801e-13,0.0,5.169878828456276e-24,340.55380434782603,70.0,0.0,255.0,0.0
35.30000000000036,35.72718904042807,51.27533788247209,1370.0017397804186,6.915489132097719e-05,-2.2833804337096808e-05,0.0,0.0,0.0,-3.637978807091403e-11,340.54499999999996,70.0,0.0,255.0,0.0
35.350000000000364,35.72719249487264,51.2753367548176,1370.0017395634204,6.915489132097719e-05,-2.2833804337096808e-05,-1.8189894035458565e-12,0.0,0.0,5.169878828456276e-24,340.53619565217383,70.0,0.0,255.0,0.0
35.40000000000036,35.72719594931894,51.275335627163734,1370.001739345491,6.915489132097719e-05,-2.2833804337096808e-05,0.0,-5.684341886080801e-13,-1.1368683772161603e-12,3.63797880709192e-11,340.52739130434776,70.0,0.0,255.0,0.0
35.45000000000036,35.727199403767,51.27533449951049,1370.0017391284928,6.915489126413377e-05,-2.2833804450783646e-05,1.8189894035458565e-12,-5.684341886080801e-13,0.0,5.169878828456276e-24,340.5185869565217,70.0,0.0,255.0,0.0
35.50000000000036,35.72720285821684,51.27533337185787,1370.0017389105633,6.915489126413377e-05,-2.2833804337096808e-05,0.0,5.684341886080801e-13,1.1368683772161603e-12,-3.637978807091403e-11,340.5097826086956,70.0,0.0,255.0,0.0
35.55000000000037,35.72720631266842,51.27533224420588,1370.0017386917025,6.915489132097719e-05,-2.2833804337096808e-05,-1.8189894035458565e-12,0.0,-1.1368683772161603e-12,5.169878828456276e-24,340.5009782608695,70.0,0.0,255.0,0.0
35.600000000000364,35.72720976712177,51.275331116554504,1370.0017384747043,6.915489126413377e-05,-2.2833804450783646e-05,0.0,0.0,1.1368683772161603e-12,3.63797880709192e-11,340.4921739130434,70.0,0.0,255.0,0.0
35.65000000000036,35.72721322157688,51.27532998890375,1370.0017382549122,6.915489132097719e-05,-2.283380422340997e-05,1.8189894035458565e-12,5.684341886080801e-13,1.1368683772161603e-12,5.169878828456276e-24,340.48336956521734,70.0,0.0,255.0,0.0
35.700000000000365,35.72721667603373,51.27532886125362,1370.001738037914,6.915489132097719e-05,-2.2833804337096808e-05,0.0,0.0,-2.2737367544323206e-12,-3.637978807091403e-11,340.4745652173912,70.0,0.0,255.0,0.0
35.75000000000037,35.72722013049236,51.275327733604094,1370.0017378199846,6.915489132097719e-05,-2.2833804450783646e-05,-1.8189894035458565e-12,0.0,1.1368683772161603e-12,5.169878828456276e-24,340.46576086956514,70.0,0.0,255.0,0.0
35.80000000000037,35.72722358495274,51.27532660595521,1370.0017376001924,6.915489132097719e-05,-2.283380422340997e-05,0.0,-5.684341886080801e-13,1.1368683772161603e-12,3.63797880709192e-11,340.4569565217391,70.0,0.0,255.0,0.0
35.850000000000364,35.72722703941489,51.27532547830693,1370.001737382263,6.915489126413377e-05,-2.2833804337096808e-05,1.8189894035458565e-12,-1.1368683772161603e-12,-2.2737367544323206e-12,5.169878828456276e-24,340.448152173913,70.0,0.0,255.0,0.0
35.90000000000037,35.727230493878785,51.27532435065928,1370.0017371634021,6.915489120729035e-05,-2.2833804450783646e-05,0.0,5.684341886080801e-13,0.0,-3.637978807091403e-11,340.4393478260869,70.0,0.0,255.0,0.0
35.95000000000037,35.727233948344455,51.27532322301224,1370.00173694361,6.915489132097719e-05,-2.2833804337096808e-05,-1.8189894035458565e-12,1.1368683772161603e-12,1.1368683772161603e-12,5.169878828456276e-24,340.4305434782608,70.0,0.0,255.0,0.0
36.00000000000037,35.72723740281187,51.27532209536584,1370.0017367238179,6.915489132097719e-05,-2.2833804337096808e-05,0.0,0.0,0.0,3.63797880709192e-11,340.42173913043473,70.0,0.0,255.0,0.0
36.05000000000037,35.72724085728105,51.275320967720035,1370.0017365068197,6.915489132097719e-05,-2.2833804337096808e-05,1.8189894035458565e-12,0.0,0.0,5.169878828456276e-24,340.41293478260866,70.0,0.0,255.0,0.0
36.10000000000037,35.72724431175201,51.275319840074864,1370.0017362870276,6.915489132097719e-05,-2.2833804337096808e-05,0.0,0.0,0.0,-3.637978807091403e-11,340.40413043478253,70.0,0.0,255.0,0.0
36.150000000000375,35.7272477662247,51.27531871243031,1370.0017360681668,6.915489132097719e-05,-2.2833804337096808e-05,-1.8189894035458565e-12,0.0,0.0,5.169878828456276e-24,340.39532608695646,70.0,0.0,255.0,0.0
36.20000000000037,35.72725122069918,51.275317584786364,1370.001735849306,6.915489132097719e-05,-2.2833804337096808e-05,0.0,-5.684341886080801e-13,0.0,3.63797880709192e-11,340.3865217391304,70.0,0.0,255.0,0.0
36.25000000000037,35.727254675175395,51.27531645714304,1370.0017356295139,6.915489126413377e-05,-2.2833804337096808e-05,1.8189894035458565e-12,0.0,0.0,5.169878828456276e-24,340.37771739130426,70.0,0.0,255.0,0.0
36.300000000000374,35.727258129653386,51.27531532950034,1370.0017354087904,6.915489132097719e-05,-2.2833804337096808e-05,0.0,5.684341886080801e-13,0.0,-3.637978807091403e-11,340.3689130434782,70.0,0.0,255.0,0.0
36.35000000000038,35.727261584133124,51.27531420185825,1370.0017351899296,6.915489132097719e-05,-2.2833804337096808e-05,-1.8189894035458565e-12,0.0,0.0,5.169878828456276e-24,340.3601086956521,70.0,0.0,255.0,0.0
36.400000000000375,35.72726503861464,51.27531307421677,1370.0017349692062,6.915489132097719e-05,-2.2833804337096808e-05,0.0,0.0,0.0,3.63797880709192e-11,340.35130434782604,70.0,0.0,255.0,0.0
36.45000000000037,35.72726849309791,51.27531194657592,1370.0017347484827,6.915489132097719e-05,-2.2833804337096808e-05,1.8189894035458565e-12,0.0,0.0,5.169878828456276e-24,340.3424999999999,70.0,0.0,255.0,0.0
36.50000000000038,35.727271947582935,51.27531081893567,1370.0017345277593,6.915489132097719e-05,-2.2833804337096808e-05,0.0,0.0,0.0,-3.637978807091403e-11,340.33369565217384,70.0,0.0,255.0,0.0
36.55000000000038,35.72727540206971,51.275309691296044,1370.0017343079671,6.915489132097719e-05,-2.2833804337096808e-05,-1.8189894035458565e-12,0.0,0.0,5.169878828456276e-24,340.3248913043478,70.0,0.0,255.0,0.0
36.60000000000038,35.72727885655827,51.275308563657035,1370.001734085381,6.915489132097719e-05,-2.2833804337096808e-05,0.0,-5.684341886080801e-13,-1.1368683772161603e-12,3.63797880709192e-11,340.3160869565217,70.0,0.0,255.0,0.0
36.650000000000375,35.72728231104858,51.275307436018636,1370.0017338674515,6.915489126413377e-05,-2.2833804450783646e-05,1.8189894035458565e-12,0.0,0.0,5.169878828456276e-24,340.3072826086956,70.0,0.0,255.0,0.0
36.70000000000038,35.72728576554064,51.27530630838085,1370.0017336448655,6.915489132097719e-05,-2.2833804337096808e-05,0.0,5.684341886080801e-13,1.1368683772161603e-12,-3.637978807091403e-11,340.2984782608695,70.0,0.0,255.0,0.0
36.750000000000384,35.727289220034486,51.27530518074369,1370.001733424142,6.915489132097719e-05,-2.2833804337096808e-05,-1.8189894035458565e-12,0.0,-1.1368683772161603e-12,5.169878828456276e-24,340.28967391304343,70.0,0.0,255.0,0.0
36.80000000000038,35.727292674530084,51.27530405310713,1370.0017332024872,6.915489132097719e-05,-2.2833804450783646e-05,0.0,0.0,1.1368683772161603e-12,3.63797880709192e-11,340.2808695652173,70.0,0.0,255.0,0.0
36.85000000000038,35.72729612902742,51.27530292547119,1370.0017329817638,6.915489132097719e-05,-2.283380422340997e-05,1.8189894035458565e-12,0.0,1.1368683772161603e-12,5.169878828456276e-24,340.27206521739123,70.0,0.0,255.0,0.0
36.90000000000038,35.727299583526545,51.27530179783586,1370.001732762903,6.915489132097719e-05,-2.2833804337096808e-05,0.0,0.0,-2.2737367544323206e-12,-3.637978807091403e-11,340.26326086956516,70.0,0.0,255.0,0.0
36.95000000000039,35.727303038027415,51.27530067020115,1370.0017325393856,6.915489132097719e-05,-2.2833804450783646e-05,-1.8189894035458565e-12,0.0,1.1368683772161603e-12,5.169878828456276e-24,340.2544565217391,70.0,0.0,255.0,0.0
37.000000000000384,35.72730649253006,51.27529954256703,1370.0017323195934,6.915489132097719e-05,-2.283380422340997e-05,0.0,-5.684341886080801e-13,1.1368683772161603e-12,3.63797880709192e-11,340.24565217391296,70.0,0.0,255.0,0.0
37.05000000000038,35.72730994703447,51.27529841493355,1370.001732096076,6.915489126413377e-05,-2.2833804337096808e-05,1.8189894035458565e-12,0.0,-2.2737367544323206e-12,5.169878828456276e-24,340.2368478260869,70.0,0.0,255.0,0.0
37.100000000000385,35.72731340154062,51.27529728730067,1370.0017318753526,6.915489132097719e-05,-2.2833804450783646e-05,0.0,5.684341886080801e-13,0.0,-3.637978807091403e-11,340.2280434782608,70.0,0.0,255.0,0.0
37.15000000000039,35.72731685604854,51.2752961596684,1370.0017316527665,6.915489132097719e-05,-2.2833804337096808e-05,-1.8189894035458565e-12,0.0,1.1368683772161603e-12,5.169878828456276e-24,340.21923913043474,70.0,0.0,255.0,0.0
37.20000000000039,35.727320310558234,51.275295032036745,1370.0017314311117,6.915489132097719e-05,-2.2833804337096808e-05,0.0,0.0,0.0,3.63797880709192e-11,340.2104347826086,70.0,0.0,255.0,0.0
37.250000000000384,35.727323765069684,51.27529390440569,1370.001731209457,6.915489132097719e-05,-2.2833804337096808e-05,1.8189894035458565e-12,0.0,0.0,5.169878828456276e-24,340.20163043478254,70.0,0.0,255.0,0.0
37.30000000000039,35.72732721958288,51.27529277677525,1370.0017309878021,6.915489132097719e-05,-2.2833804337096808e-05,0.0,-5.684341886080801e-13,0.0,-3.637978807091403e-11,340.1928260869565,70.0,0.0,255.0,0.0
37.35000000000039,35.72733067409785,51.27529164914543,1370.0017307642847,6.915489126413377e-05,-2.2833804337096808e-05,-1.8189894035458565e-12,0.0,0.0,5.169878828456276e-24,340.18402173913034,70.0,0.0,255.0,0.0
37.40000000000039,35.72733412861459,51.275290521516226,1370.0017305416986,6.915489132097719e-05,-2.2833804337096808e-05,0.0,0.0,0.0,3.63797880709192e-11,340.1752173913043,70.0,0.0,255.0,0.0
37.45000000000039,35.72733758313308,51.27528939388761,1370.0017303200439,6.915489126413377e-05,-2.2833804337096808e-05,1.8189894035458565e-12,0.0,0.0,5.169878828456276e-24,340.1664130434782,70.0,0.0,255.0,0.0
37.50000000000039,35.72734103765334,51.27528826625961,1370.0017300965264,6.915489132097719e-05,-2.2833804337096808e-05,0.0,5.684341886080801e-13,0.0,-3.637978807091403e-11,340.15760869565213,70.0,0.0,255.0,0.0
37.550000000000395,35.727344492175355,51.27528713863222,1370.001729873009,6.915489132097719e-05,-2.2833804337096808e-05,-1.8189894035458565e-12,0.0,-1.1368683772161603e-12,5.169878828456276e-24,340.148804347826,70.0,0.0,255.0,0.0
37.60000000000039,35.72734794669913,51.27528601100545,1370.0017296513543,6.915489132097719e-05,-2.2833804450783646e-05,0.0,-5.684341886080801e-13,0.0,3.63797880709192e-11,340.13999999999993,70.0,0.0,255.0,0.0
37.65000000000039,35.72735140122468,51.275284883379264,1370.0017294250429,6.915489126413377e-05,-2.2833804337096808e-05,1.8189894035458565e-12,0.0,2.2737367544323206e-12,5.169878828456276e-24,340.13119565217386,70.0,0.0,255.0,0.0
37.700000000000394,35.72735485575199,51.275283755753705,1370.0017292043194,6.915489132097719e-05,-2.283380422340997e-05,0.0,1.1368683772161603e-12,-1.1368683772161603e-12,-3.637978807091403e-11,340.1223913043478,70.0,0.0,255.0,0.0
37.7500000000004,35.72735831028106,51.27528262812875,1370.001728980802,6.91548913778206e-05,-2.2833804450783646e-05,-1.8189894035458565e-12,0.0,-1.1368683772161603e-12,5.169878828456276e-24,340.11358695652166,70.0,0.0,255.0,0.0
37.800000000000395,35.72736176481189,51.2752815005044,1370.0017287572846,6.915489132097719e-05,-2.2833804337096808e-05,0.0,-1.1368683772161603e-12,1.1368683772161603e-12,3.63797880709192e-11,340.1047826086956,70.0,0.0,255.0,0.0
37.85000000000039,35.727365219344485,51.27528037288065,1370.0017285337672,6.915489126413377e-05,-2.2833804337096808e-05,1.8189894035458565e-12,0.0,-1.1368683772161603e-12,5.169878828456276e-24,340.0959782608695,70.0,0.0,255.0,0.0
37.9000000000004,35.72736867387884,51.275279245257515,1370.0017283093184,6.915489132097719e-05,-2.2833804450783646e-05,0.0,5.684341886080801e-13,0.0,-3.637978807091403e-11,340.0871739130434,70.0,0.0,255.0,0.0
37.9500000000004,35.72737212841496,51.275278117634976,1370.0017280839384,6.915489132097719e-05,-2.2833804337096808e-05,-1.8189894035458565e-12,0.0,1.1368683772161603e-12,5.169878828456276e-24,340.0783695652173,70.0,0.0,255.0,0.0
38.0000000000004,35.72737558295286,51.27527699001306,1370.0017278622836,6.915489132097719e-05,-2.2833804337096808e-05,0.0,-5.684341886080801e-13,0.0,3.63797880709192e-11,340.06956521739124,70.0,0.0,255.0,0.0
38.050000000000395,35.72737903749251,51.27527586239174,1370.0017276387662,6.915489126413377e-05,-2.2833804337096808e-05,1.8189894035458565e-12,0.0,0.0,5.169878828456276e-24,340.0607608695652,70.0,0.0,255.0,0.0
38.1000000000004,35.72738249203392,51.27527473477102,1370.001727413386,6.915489132097719e-05,-2.2833804337096808e-05,0.0,1.1368683772161603e-12,0.0,-3.637978807091403e-11,340.05195652173904,70.0,0.0,255.0,0.0
38.150000000000404,35.72738594657709,51.275273607150915,1370.001727188006,6.91548913778206e-05,-2.2833804337096808e-05,-1.8189894035458565e-12,0.0,0.0,5.169878828456276e-24,340.043152173913,70.0,0.0,255.0,0.0
38.2000000000004,35.72738940112201,51.27527247953142,1370.0017269644886,6.915489132097719e-05,-2.2833804337096808e-05,0.0,-1.1368683772161603e-12,0.0,3.63797880709192e-11,340.0343478260869,70.0,0.0,255.0,0.0
38.2500000000004,35.72739285566872,51.27527135191251,1370.0017267409712,6.915489126413377e-05,-2.2833804337096808e-05,1.8189894035458565e-12,0.0,0.0,5.169878828456276e-24,340.02554347826083,70.0,0.0,255.0,0.0
38.3000000000004,35.72739631021718,51.27527022429421,1370.0017265165225,6.915489132097719e-05,-2.2833804337096808e-05,0.0,5.684341886080801e-13,0.0,-3.637978807091403e-11,340.0167391304347,70.0,0.0,255.0,0.0
38.350000000000406,35.72739976476742,51.27526909667651,1370.001726290211,6.915489132097719e-05,-2.2833804337096808e-05,-1.8189894035458565e-12,0.0,0.0,5.169878828456276e-24,340.00793478260863,70.0,0.0,255.0,0.0
38.400000000000404,35.7274032193194,51.27526796905943,1370.0017260666937,6.915489132097719e-05,-2.2833804337096808e-05,0.0,-5.684341886080801e-13,0.0,3.63797880709192e-11,339.99913043478256,70.0,0.0,255.0,0.0
38.4500000000004,35.727406673873155,51.275266841442935,1370.0017258403823,6.915489126413377e-05,-2.2833804337096808e-05,1.8189894035458565e-12,0.0,0.0,5.169878828456276e-24,339.99032608695643,70.0,0.0,255.0,0.0
38.500000000000405,35.72741012842867,51.27526571382705,1370.0017256150022,6.915489132097719e-05,-2.2833804337096808e-05,0.0,1.1368683772161603e-12,0.0,-3.637978807091403e-11,339.98152173913036,70.0,0.0,255.0,0.0
38.55000000000041,35.72741358298596,51.27526458621176,1370.0017253896222,6.91548913778206e-05,-2.2833804337096808e-05,-1.8189894035458565e-12,0.0,0.0,5.169878828456276e-24,339.9727173913043,70.0,0.0,255.0,0.0
38.600000000000406,35.727417037545,51.275263458597074,1370.001725164242,6.915489132097719e-05,-2.2833804337096808e-05,0.0,-1.1368683772161603e-12,0.0,3.63797880709192e-11,339.9639130434782,70.0,0.0,255.0,0.0
38.650000000000404,35.72742049210581,51.275262330983004,1370.001724938862,6.915489126413377e-05,-2.2833804337096808e-05,1.8189894035458565e-12,0.0,0.0,5.169878828456276e-24,339.9551086956521,70.0,0.0,255.0,0.0
38.70000000000041,35.72742394666838,51.27526120336951,1370.0017247125506,6.915489132097719e-05,-2.2833804337096808e-05,0.0,5.684341886080801e-13,0.0,-3.637978807091403e-11,339.946304347826,70.0,0.0,255.0,0.0
38.75000000000041,35.727427401232724,51.27526007575664,1370.0017244871706,6.915489132097719e-05,-2.2833804337096808e-05,-1.8189894035458565e-12,-5.684341886080801e-13,-1.1368683772161603e-12,5.169878828456276e-24,339.93749999999994,70.0,0.0,255.0,0.0
38.80000000000041,35.72743085579882,51.275258948144355,1370.0017242617905,6.915489126413377e-05,-2.2833804450783646e-05,0.0,-5.684341886080801e-13,0.0,3.63797880709192e-11,339.9286956521739,70.0,0.0,255.0,0.0
38.850000000000406,35.727434310366675,51.27525782053268,1370.0017240345478,6.915489126413377e-05,-2.2833804337096808e-05,1.8189894035458565e-12,0.0,2.2737367544323206e-12,5.169878828456276e-24,339.91989130434774,70.0,0.0,255.0,0.0
38.90000000000041,35.727437764936326,51.2752566929216,1370.001723807305,6.915489126413377e-05,-2.283380422340997e-05,0.0,1.1368683772161603e-12,-1.1368683772161603e-12,-3.637978807091403e-11,339.9110869565217,70.0,0.0,255.0,0.0
38.950000000000415,35.72744121950772,51.27525556531112,1370.0017235800624,6.91548913778206e-05,-2.2833804450783646e-05,-1.8189894035458565e-12,0.0,-1.1368683772161603e-12,5.169878828456276e-24,339.9022826086956,70.0,0.0,255.0,0.0
39.00000000000041,35.727444674080864,51.27525443770124,1370.0017233574763,6.915489126413377e-05,-2.2833804337096808e-05,0.0,-1.1368683772161603e-12,1.1368683772161603e-12,3.63797880709192e-11,339.8934782608695,70.0,0.0,255.0,0.0
39.05000000000041,35.727448128655794,51.275253310091955,1370.0017231302336,6.915489126413377e-05,-2.2833804337096808e-05,1.8189894035458565e-12,5.684341886080801e-13,-1.1368683772161603e-12,5.169878828456276e-24,339.8846739130434,70.0,0.0,255.0,0.0
39.10000000000041,35.72745158323249,51.275252182483264,1370.0017229020596,6.915489132097719e-05,-2.2833804450783646e-05,0.0,5.684341886080801e-13,0.0,-3.637978807091403e-11,339.87586956521733,70.0,0.0,255.0,0.0
39.15000000000042,35.727455037810934,51.27525105487519,1370.0017226766795,6.915489132097719e-05,-2.2833804337096808e-05,-1.8189894035458565e-12,0.0,1.1368683772161603e-12,5.169878828456276e-24,339.86706521739126,70.0,0.0,255.0,0.0
39.200000000000415,35.72745849239116,51.2752499272677,1370.0017224485055,6.915489132097719e-05,-2.2833804337096808e-05,0.0,-5.684341886080801e-13,0.0,3.63797880709192e-11,339.85826086956513,70.0,0.0,255.0,0.0
39.25000000000041,35.72746194697313,51.275248799660815,1370.001722222194,6.915489126413377e-05,-2.2833804337096808e-05,1.8189894035458565e-12,-5.684341886080801e-13,0.0,5.169878828456276e-24,339.84945652173906,70.0,0.0,255.0,0.0
39.300000000000416,35.72746540155688,51.27524767205451,1370.0017219949514,6.915489126413377e-05,-2.2833804337096808e-05,0.0,1.1368683772161603e-12,0.0,-3.637978807091403e-11,339.840652173913,70.0,0.0,255.0,0.0
39.35000000000042,35.72746885614241,51.27524654444882,1370.0017217667773,6.91548913778206e-05,-2.2833804337096808e-05,-1.8189894035458565e-12,0.0,0.0,5.169878828456276e-24,339.8318478260869,70.0,0.0,255.0,0.0
39.40000000000042,35.727472310729674,51.27524541684372,1370.0017215395346,6.915489126413377e-05,-2.2833804337096808e-05,0.0,-1.1368683772161603e-12,0.0,3.63797880709192e-11,339.8230434782608,70.0,0.0,255.0,0.0
39.450000000000415,35.72747576531872,51.27524428923921,1370.001721312292,6.915489126413377e-05,-2.2833804337096808e-05,1.8189894035458565e-12,5.684341886080801e-13,0.0,5.169878828456276e-24,339.8142391304347,70.0,0.0,255.0,0.0
39.50000000000042,35.72747921990953,51.2752431616353,1370.0017210850492,6.915489132097719e-05,-2.2833804337096808e-05,0.0,5.684341886080801e-13,0.0,-3.637978807091403e-11,339.80543478260864,70.0,0.0,255.0,0.0
39.55000000000042,35.727482674502106,51.27524203403199,1370.0017208568752,6.915489132097719e-05,-2.2833804337096808e-05,-1.8189894035458565e-12,0.0,0.0,5.169878828456276e-24,339.7966304347825,70.0,0.0,255.0,0.0
39.60000000000042,35.72748612909645,51.275240906429275,1370.0017206305638,6.915489132097719e-05,-2.2833804337096808e-05,0.0,-5.684341886080801e-13,0.0,3.63797880709192e-11,339.78782608695644,70.0,0.0,255.0,0.0
39.65000000000042,35.727489583692545,51.27523977882715,1370.0017204014584,6.915489126413377e-05,-2.2833804337096808e-05,1.8189894035458565e-12,-5.684341886080801e-13,0.0,5.169878828456276e-24,339.77902173913037,70.0,0.0,255.0,0.0
39.70000000000042,35.72749303829042,51.27523865122562,1370.0017201714218,6.915489126413377e-05,-2.2833804337096808e-05,0.0,1.1368683772161603e-12,-1.1368683772161603e-12,-3.637978807091403e-11,339.7702173913043,70.0,0.0,255.0,0.0
39.750000000000426,35.727496492890054,51.27523752362469,1370.001719944179,6.91548913778206e-05,-2.2833804450783646e-05,-1.8189894035458565e-12,0.0,0.0,5.169878828456276e-24,339.76141304347817,70.0,0.0,255.0,0.0
39.80000000000042,35.72749994749147,51.275236396024354,1370.001719716005,6.915489126413377e-05,-2.2833804337096808e-05,0.0,-1.1368683772161603e-12,2.2737367544323206e-12,3.63797880709192e-11,339.7526086956521,70.0,0.0,255.0,0.0
39.85000000000042,35.72750340209462,51.27523526842461,1370.0017194868997,6.915489126413377e-05,-2.283380422340997e-05,1.8189894035458565e-12,5.684341886080801e-13,-1.1368683772161603e-12,5.169878828456276e-24,339.743804347826,70.0,0.0,255.0,0.0
39.900000000000425,35.72750685669957,51.275234140825454,1370.0017192577943,6.915489132097719e-05,-2.2833804450783646e-05,0.0,5.684341886080801e-13,-1.1368683772161603e-12,-3.637978807091403e-11,339.73499999999996,70.0,0.0,255.0,0.0
39.95000000000043,35.72751031130626,51.27523301322688,1370.001719028689,6.915489132097719e-05,-2.2833804337096808e-05,-1.8189894035458565e-12,0.0,1.1368683772161603e-12,5.169878828456276e-24,339.7261956521738,70.0,0.0,255.0,0.0
40.000000000000426,35.72751376591473,51.27523188562892,1370.0017187995836,6.915489132097719e-05,-2.2833804337096808e-05,0.0,-5.684341886080801e-13,-1.1368683772161603e-12,3.63797880709192e-11,339.71739130434776,70.0,0.0,255.0,0.0
40.05000000000042,35.72751722052495,51.27523075803154,1370.0017185704783,6.915489126413377e-05,-2.2833804450783646e-05,1.8189894035458565e-12,-5.684341886080801e-13,1.1368683772161603e-12,5.169878828456276e-24,339.7085869565217,70.0,0.0,255.0,0.0
40.10000000000043,35.72752067513696,51.27522963043476,1370.0017183423042,6.915489126413377e-05,-2.283380422340997e-05,0.0,0.0,1.1368683772161603e-12,-3.637978807091403e-11,339.69978260869556,70.0,0.0,255.0,0.0
40.15000000000043,35.72752412975071,51.275228502838566,1370.0017181131989,6.915489126413377e-05,-2.2833804337096808e-05,-1.8189894035458565e-12,0.0,-2.2737367544323206e-12,5.169878828456276e-24,339.6909782608695,70.0,0.0,255.0,0.0
40.20000000000043,35.72752758436624,51.275227375242956,1370.0017178831622,6.915489126413377e-05,-2.2833804450783646e-05,0.0,5.684341886080801e-13,0.0,3.63797880709192e-11,339.6821739130434,70.0,0.0,255.0,0.0
