t,lat,lon,alt,vx,vy,vz,ax,ay,az,yaw,mode,ledr,ledg,ledb
10.0,35.72549478691027,51.27598251661859,1372.0011126119643,6.915489123571107e-05,-2.28338043939399e-05,0.0,1.705322352513864e-12,1.1368618720031092e-12,0.0,345.0,70.0,0.0,255.0,0.0
10.05,35.7254982497416,51.27598137853299,1372.0011123185977,6.915489132097719e-05,-2.2833804337096808e-05,0.0,2.842269605438097e-13,5.684309360015627e-13,0.0,344.99119565217393,70.0,0.0,255.0,0.0
10.100000000000001,35.72550171257338,51.27598024044644,1372.0011120215058,6.915489126413377e-05,-2.2833804337096808e-05,0.0,0.0,-1.1368683772161603e-12,0.0,344.9823913043478,70.0,0.0,255.0,0.0
10.150000000000002,35.725505175405615,51.27597910235892,1372.001111724414,6.915489132097719e-05,-2.2833804450783646e-05,0.0,5.684341886080801e-13,0.0,0.0,344.97358695652173,70.0,0.0,255.0,0.0
10.200000000000003,35.7255086382383,51.27597796427044,1372.0011114282534,6.915489132097719e-05,-2.2833804337096808e-05,0.0,0.0,2.2737367544323206e-12,0.0,344.96478260869566,70.0,0.0,255.0,0.0
10.250000000000004,35.72551210107144,51.27597682618101,1372.0011111320928,6.915489132097719e-05,-2.283380422340997e-05,0.0,0.0,0.0,0.0,344.9559782608696,70.0,0.0,255.0,0.0
10.300000000000004,35.72551556390501,51.27597568809061,1372.0011108359322,6.915489132097719e-05,-2.2833804337096808e-05,0.0,-5.684341886080801e-13,-1.1368683772161603e-12,0.0,344.94717391304346,70.0,0.0,255.0,0.0
10.350000000000005,35.72551902673904,51.27597454999925,1372.0011105397716,6.915489126413377e-05,-2.2833804337096808e-05,0.0,0.0,0.0,0.0,344.9383695652174,70.0,0.0,255.0,0.0
10.400000000000006,35.725522489573535,51.27597341190694,1372.001110243611,6.915489132097719e-05,-2.2833804337096808e-05,0.0,5.684341886080801e-13,-1.1368683772161603e-12,0.0,344.9295652173913,70.0,0.0,255.0,0.0
10.450000000000006,35.72552595240847,51.275972273813665,1372.0011099483818,6.915489132097719e-05,-2.2833804450783646e-05,0.0,-5.684341886080801e-13,0.0,0.0,344.92076086956524,70.0,0.0,255.0,0.0
10.500000000000007,35.72552941524386,51.27597113571944,1372.0011096531525,6.915489126413377e-05,-2.2833804337096808e-05,0.0,0.0,1.1368683772161603e-12,0.0,344.9119565217391,70.0,0.0,255.0,0.0
10.550000000000008,35.7255328780797,51.275969997624244,1372.0011093560606,6.915489132097719e-05,-2.2833804337096808e-05,0.0,5.684341886080801e-13,0.0,0.0,344.90315217391304,70.0,0.0,255.0,0.0
10.600000000000009,35.72553634091599,51.2759688595281,1372.0011090608314,6.915489132097719e-05,-2.2833804337096808e-05,0.0,0.0,0.0,0.0,344.89434782608697,70.0,0.0,255.0,0.0
10.65000000000001,35.725539803752724,51.27596772143098,1372.0011087646708,6.915489132097719e-05,-2.2833804337096808e-05,0.0,0.0,0.0,0.0,344.88554347826084,70.0,0.0,255.0,0.0
10.70000000000001,35.72554326658991,51.275966583332924,1372.001108467579,6.915489132097719e-05,-2.2833804337096808e-05,0.0,-5.684341886080801e-13,0.0,0.0,344.87673913043477,70.0,0.0,255.0,0.0
10.75000000000001,35.72554672942755,51.27596544523389,1372.0011081751436,6.915489126413377e-05,-2.2833804337096808e-05,0.0,0.0,0.0,0.0,344.8679347826087,70.0,0.0,255.0,0.0
10.800000000000011,35.72555019226564,51.275964307133904,1372.0011078771204,6.915489132097719e-05,-2.2833804337096808e-05,0.0,5.684341886080801e-13,0.0,0.0,344.8591304347826,70.0,0.0,255.0,0.0
10.850000000000012,35.72555365510417,51.275963169032956,1372.0011075809598,6.915489132097719e-05,-2.2833804337096808e-05,0.0,-5.684341886080801e-13,-1.1368683772161603e-12,0.0,344.8503260869565,70.0,0.0,255.0,0.0
10.900000000000013,35.72555711794316,51.27596203093105,1372.0011072866619,6.915489126413377e-05,-2.2833804450783646e-05,0.0,0.0,0.0,0.0,344.8415217391304,70.0,0.0,255.0,0.0
10.950000000000014,35.725560580782584,51.275960892828174,1372.0011069905013,6.915489132097719e-05,-2.2833804337096808e-05,0.0,5.684341886080801e-13,1.1368683772161603e-12,0.0,344.83271739130436,70.0,0.0,255.0,0.0
11.000000000000014,35.725564043622484,51.275959754724354,1372.0011066943407,6.915489132097719e-05,-2.2833804337096808e-05,0.0,0.0,0.0,0.0,344.8239130434783,70.0,0.0,255.0,0.0
11.050000000000015,35.725567506462816,51.27595861661956,1372.0011063991114,6.915489132097719e-05,-2.2833804337096808e-05,0.0,0.0,0.0,0.0,344.81510869565216,70.0,0.0,255.0,0.0
11.100000000000016,35.72557096930359,51.27595747851381,1372.0011061029509,6.915489132097719e-05,-2.2833804337096808e-05,0.0,-5.684341886080801e-13,0.0,0.0,344.8063043478261,70.0,0.0,255.0,0.0
11.150000000000016,35.725574432144825,51.2759563404071,1372.0011058077216,6.915489126413377e-05,-2.2833804337096808e-05,0.0,0.0,0.0,0.0,344.7975,70.0,0.0,255.0,0.0
11.200000000000017,35.72557789498651,51.27595520229944,1372.0011055124924,6.915489132097719e-05,-2.2833804337096808e-05,0.0,5.684341886080801e-13,-1.1368683772161603e-12,0.0,344.7886956521739,70.0,0.0,255.0,0.0
11.250000000000018,35.72558135782863,51.2759540641908,1372.0011052163318,6.915489132097719e-05,-2.2833804450783646e-05,0.0,-5.684341886080801e-13,0.0,0.0,344.7798913043478,70.0,0.0,255.0,0.0
11.300000000000018,35.72558482067121,51.27595292608121,1372.0011049211025,6.915489126413377e-05,-2.2833804337096808e-05,0.0,0.0,1.1368683772161603e-12,0.0,344.77108695652174,70.0,0.0,255.0,0.0
11.35000000000002,35.72558828351424,51.27595178797067,1372.0011046258733,6.915489132097719e-05,-2.2833804337096808e-05,0.0,5.684341886080801e-13,0.0,0.0,344.76228260869567,70.0,0.0,255.0,0.0
11.40000000000002,35.7255917463577,51.27595064985915,1372.0011043315753,6.915489132097719e-05,-2.2833804337096808e-05,0.0,-1.1368683772161603e-12,1.1368683772161603e-12,0.0,344.75347826086954,70.0,0.0,255.0,0.0
11.45000000000002,35.72559520920163,51.27594951174668,1372.0011040344834,6.915489120729035e-05,-2.283380422340997e-05,0.0,0.0,0.0,0.0,344.74467391304347,70.0,0.0,255.0,0.0
11.500000000000021,35.72559867204599,51.27594837363324,1372.0011037411168,6.915489132097719e-05,-2.2833804337096808e-05,0.0,1.1368683772161603e-12,-2.2737367544323206e-12,0.0,344.7358695652174,70.0,0.0,255.0,0.0
11.550000000000022,35.72560213489081,51.275947235518856,1372.0011034449562,6.915489132097719e-05,-2.2833804450783646e-05,0.0,0.0,0.0,0.0,344.7270652173913,70.0,0.0,255.0,0.0
11.600000000000023,35.72560559773608,51.27594609740349,1372.0011031487957,6.915489132097719e-05,-2.2833804337096808e-05,0.0,0.0,1.1368683772161603e-12,0.0,344.7182608695652,70.0,0.0,255.0,0.0
11.650000000000023,35.7256090605818,51.27594495928718,1372.0011028544977,6.915489132097719e-05,-2.2833804337096808e-05,0.0,-5.684341886080801e-13,-1.1368683772161603e-12,0.0,344.7094565217391,70.0,0.0,255.0,0.0
11.700000000000024,35.72561252342795,51.27594382116989,1372.0011025583372,6.915489126413377e-05,-2.2833804450783646e-05,0.0,0.0,0.0,0.0,344.70065217391306,70.0,0.0,255.0,0.0
11.750000000000025,35.725615986274555,51.27594268305165,1372.0011022649705,6.915489132097719e-05,-2.2833804337096808e-05,0.0,5.684341886080801e-13,2.2737367544323206e-12,0.0,344.6918478260869,70.0,0.0,255.0,0.0
11.800000000000026,35.725619449121616,51.27594154493245,1372.00110196881,6.915489132097719e-05,-2.283380422340997e-05,0.0,-5.684341886080801e-13,0.0,0.0,344.68304347826086,70.0,0.0,255.0,0.0
11.850000000000026,35.72562291196912,51.2759404068123,1372.001101674512,6.915489126413377e-05,-2.2833804337096808e-05,0.0,0.0,-1.1368683772161603e-12,0.0,344.6742391304348,70.0,0.0,255.0,0.0
11.900000000000027,35.72562637481706,51.27593926869116,1372.0011013811454,6.915489132097719e-05,-2.2833804337096808e-05,0.0,5.684341886080801e-13,0.0,0.0,344.6654347826087,70.0,0.0,255.0,0.0
11.950000000000028,35.725629837665466,51.27593813056908,1372.0011010840535,6.915489132097719e-05,-2.2833804337096808e-05,0.0,0.0,-1.1368683772161603e-12,0.0,344.6566304347826,70.0,0.0,255.0,0.0
12.000000000000028,35.7256333005143,51.275936992446034,1372.001100790687,6.915489132097719e-05,-2.2833804450783646e-05,0.0,0.0,0.0,0.0,344.6478260869565,70.0,0.0,255.0,0.0
12.05000000000003,35.725636763363596,51.27593585432202,1372.0011004945263,6.915489132097719e-05,-2.2833804337096808e-05,0.0,-5.684341886080801e-13,1.1368683772161603e-12,0.0,344.63902173913044,70.0,0.0,255.0,0.0
12.10000000000003,35.72564022621333,51.27593471619705,1372.0011002002284,6.915489126413377e-05,-2.2833804337096808e-05,0.0,0.0,0.0,0.0,344.63021739130437,70.0,0.0,255.0,0.0
12.15000000000003,35.72564368906352,51.275933578071125,1372.0010999049991,6.915489132097719e-05,-2.2833804337096808e-05,0.0,5.684341886080801e-13,0.0,0.0,344.62141304347824,70.0,0.0,255.0,0.0
12.200000000000031,35.72564715191414,51.275932439944214,1372.0010996107012,6.915489132097719e-05,-2.2833804337096808e-05,0.0,-5.684341886080801e-13,0.0,0.0,344.61260869565217,70.0,0.0,255.0,0.0
12.250000000000032,35.72565061476522,51.27593130181636,1372.0010993173346,6.915489126413377e-05,-2.2833804337096808e-05,0.0,0.0,0.0,0.0,344.6038043478261,70.0,0.0,255.0,0.0
12.300000000000033,35.72565407761674,51.27593016368754,1372.0010990202427,6.915489132097719e-05,-2.2833804337096808e-05,0.0,5.684341886080801e-13,0.0,0.0,344.59499999999997,70.0,0.0,255.0,0.0
12.350000000000033,35.72565754046871,51.27592902555776,1372.0010987259448,6.915489132097719e-05,-2.2833804337096808e-05,0.0,0.0,0.0,0.0,344.5861956521739,70.0,0.0,255.0,0.0
12.400000000000034,35.72566100332112,51.27592788742701,1372.0010984316468,6.915489132097719e-05,-2.2833804337096808e-05,0.0,0.0,-1.1368683772161603e-12,0.0,344.5773913043478,70.0,0.0,255.0,0.0
12.450000000000035,35.725664466173974,51.2759267492953,1372.0010981364176,6.915489132097719e-05,-2.2833804450783646e-05,0.0,-5.684341886080801e-13,0.0,0.0,344.56858695652176,70.0,0.0,255.0,0.0
12.500000000000036,35.725667929027274,51.27592561116263,1372.001097843051,6.915489126413377e-05,-2.2833804337096808e-05,0.0,0.0,1.1368683772161603e-12,0.0,344.5597826086956,70.0,0.0,255.0,0.0
12.550000000000036,35.72567139188104,51.275924473028994,1372.001097545959,6.915489132097719e-05,-2.2833804337096808e-05,0.0,5.684341886080801e-13,0.0,0.0,344.55097826086956,70.0,0.0,255.0,0.0
12.600000000000037,35.725674854735225,51.27592333489441,1372.0010972525924,6.915489132097719e-05,-2.2833804337096808e-05,0.0,-5.684341886080801e-13,1.1368683772161603e-12,0.0,344.5421739130435,70.0,0.0,255.0,0.0
12.650000000000038,35.72567831758987,51.27592219675883,1372.0010969582945,6.915489126413377e-05,-2.283380422340997e-05,0.0,0.0,0.0,0.0,344.5333695652174,70.0,0.0,255.0,0.0
12.700000000000038,35.72568178044495,51.27592105862232,1372.0010966639966,6.915489132097719e-05,-2.2833804337096808e-05,0.0,5.684341886080801e-13,-2.2737367544323206e-12,0.0,344.5245652173913,70.0,0.0,255.0,0.0
12.750000000000039,35.72568524330049,51.27591992048483,1372.0010963687673,6.915489132097719e-05,-2.2833804450783646e-05,0.0,0.0,-1.1368683772161603e-12,0.0,344.5157608695652,70.0,0.0,255.0,0.0
12.80000000000004,35.72568870615647,51.27591878234639,1372.0010960754007,6.915489132097719e-05,-2.2833804450783646e-05,0.0,0.0,1.1368683772161603e-12,0.0,344.50695652173914,70.0,0.0,255.0,0.0
12.85000000000004,35.72569216901288,51.27591764420696,1372.0010957811028,6.915489132097719e-05,-2.2833804337096808e-05,0.0,-1.1368683772161603e-12,1.1368683772161603e-12,0.0,344.498152173913,70.0,0.0,255.0,0.0
12.900000000000041,35.72569563186974,51.2759165060666,1372.0010954868048,6.915489120729035e-05,-2.2833804337096808e-05,0.0,0.0,0.0,0.0,344.48934782608694,70.0,0.0,255.0,0.0
12.950000000000042,35.725699094727055,51.27591536792526,1372.001095192507,6.915489132097719e-05,-2.2833804337096808e-05,0.0,1.1368683772161603e-12,1.1368683772161603e-12,0.0,344.48054347826087,70.0,0.0,255.0,0.0
13.000000000000043,35.72570255758481,51.27591422978295,1372.0010948963463,6.915489132097719e-05,-2.283380422340997e-05,0.0,-5.684341886080801e-13,0.0,0.0,344.4717391304348,70.0,0.0,255.0,0.0
13.050000000000043,35.725706020443,51.27591309163969,1372.0010946029797,6.915489126413377e-05,-2.2833804337096808e-05,0.0,0.0,-2.2737367544323206e-12,0.0,344.46293478260867,70.0,0.0,255.0,0.0
13.100000000000044,35.72570948330165,51.27591195349545,1372.0010943086818,6.915489132097719e-05,-2.2833804450783646e-05,0.0,5.684341886080801e-13,0.0,0.0,344.4541304347826,70.0,0.0,255.0,0.0
13.150000000000045,35.72571294616073,51.275910815350265,1372.0010940153152,6.915489132097719e-05,-2.2833804337096808e-05,0.0,-5.684341886080801e-13,1.1368683772161603e-12,0.0,344.4453260869565,70.0,0.0,255.0,0.0
13.200000000000045,35.72571640902027,51.27590967720411,1372.0010937210172,6.915489126413377e-05,-2.2833804337096808e-05,0.0,0.0,-1.1368683772161603e-12,0.0,344.43652173913046,70.0,0.0,255.0,0.0
13.250000000000046,35.72571987188024,51.275908539056985,1372.0010934276506,6.915489132097719e-05,-2.2833804450783646e-05,0.0,5.684341886080801e-13,0.0,0.0,344.4277173913043,70.0,0.0,255.0,0.0
13.300000000000047,35.72572333474066,51.2759074009089,1372.0010931324214,6.915489132097719e-05,-2.2833804337096808e-05,0.0,0.0,2.2737367544323206e-12,0.0,344.41891304347826,70.0,0.0,255.0,0.0
13.350000000000048,35.72572679760151,51.275906262759854,1372.001092839986,6.915489132097719e-05,-2.283380422340997e-05,0.0,0.0,0.0,0.0,344.4101086956522,70.0,0.0,255.0,0.0
13.400000000000048,35.725730260462825,51.27590512460984,1372.0010925456882,6.915489132097719e-05,-2.2833804337096808e-05,0.0,-5.684341886080801e-13,-1.1368683772161603e-12,0.0,344.40130434782606,70.0,0.0,255.0,0.0
13.450000000000049,35.72573372332456,51.27590398645886,1372.0010922523215,6.915489126413377e-05,-2.2833804337096808e-05,0.0,0.0,0.0,0.0,344.3925,70.0,0.0,255.0,0.0
13.50000000000005,35.725737186186755,51.27590284830692,1372.0010919570923,6.915489132097719e-05,-2.2833804337096808e-05,0.0,5.684341886080801e-13,-1.1368683772161603e-12,0.0,344.3836956521739,70.0,0.0,255.0,0.0
13.55000000000005,35.7257406490494,51.275901710154,1372.0010916627944,6.915489132097719e-05,-2.2833804450783646e-05,0.0,-5.684341886080801e-13,0.0,0.0,344.37489130434784,70.0,0.0,255.0,0.0
13.600000000000051,35.72574411191248,51.27590057200014,1372.0010913694277,6.915489126413377e-05,-2.2833804337096808e-05,0.0,0.0,1.1368683772161603e-12,0.0,344.3660869565217,70.0,0.0,255.0,0.0
13.650000000000052,35.72574757477598,51.275899433845304,1372.0010910751298,6.915489132097719e-05,-2.2833804337096808e-05,0.0,5.684341886080801e-13,0.0,0.0,344.35728260869564,70.0,0.0,255.0,0.0
13.700000000000053,35.72575103763995,51.27589829568951,1372.0010907808319,6.915489132097719e-05,-2.2833804337096808e-05,0.0,0.0,0.0,0.0,344.34847826086957,70.0,0.0,255.0,0.0
13.750000000000053,35.72575450050436,51.27589715753274,1372.0010904874653,6.915489132097719e-05,-2.2833804337096808e-05,0.0,0.0,0.0,0.0,344.33967391304344,70.0,0.0,255.0,0.0
13.800000000000054,35.7257579633692,51.27589601937502,1372.0010901931673,6.915489132097719e-05,-2.2833804337096808e-05,0.0,-5.684341886080801e-13,0.0,0.0,344.33086956521737,70.0,0.0,255.0,0.0
13.850000000000055,35.725761426234484,51.27589488121632,1372.001089900732,6.915489126413377e-05,-2.2833804337096808e-05,0.0,0.0,0.0,0.0,344.3220652173913,70.0,0.0,255.0,0.0
13.900000000000055,35.725764889100226,51.275893743056656,1372.001089606434,6.915489132097719e-05,-2.2833804337096808e-05,0.0,5.684341886080801e-13,0.0,0.0,344.3132608695652,70.0,0.0,255.0,0.0
13.950000000000056,35.725768351966394,51.27589260489604,1372.0010893139988,6.915489132097719e-05,-2.2833804337096808e-05,0.0,-5.684341886080801e-13,-1.1368683772161603e-12,0.0,344.3044565217391,70.0,0.0,255.0,0.0
14.000000000000057,35.72577181483302,51.27589146673444,1372.0010890187696,6.915489126413377e-05,-2.2833804450783646e-05,0.0,0.0,0.0,0.0,344.295652173913,70.0,0.0,255.0,0.0
14.050000000000058,35.72577527770008,51.2758903285719,1372.0010887263343,6.915489132097719e-05,-2.2833804337096808e-05,0.0,5.684341886080801e-13,1.1368683772161603e-12,0.0,344.28684782608696,70.0,0.0,255.0,0.0
14.100000000000058,35.72577874056757,51.27588919040837,1372.0010884329677,6.915489132097719e-05,-2.2833804337096808e-05,0.0,0.0,0.0,0.0,344.2780434782609,70.0,0.0,255.0,0.0
14.150000000000059,35.72578220343551,51.27588805224389,1372.001088139601,6.915489132097719e-05,-2.2833804337096808e-05,0.0,0.0,1.1368683772161603e-12,0.0,344.26923913043476,70.0,0.0,255.0,0.0
14.20000000000006,35.7257856663039,51.275886914078434,1372.0010878443718,6.915489132097719e-05,-2.283380422340997e-05,0.0,-5.684341886080801e-13,0.0,0.0,344.2604347826087,70.0,0.0,255.0,0.0
14.25000000000006,35.72578912917271,51.27588577591202,1372.0010875528678,6.915489126413377e-05,-2.2833804337096808e-05,0.0,0.0,-2.2737367544323206e-12,0.0,344.2516304347826,70.0,0.0,255.0,0.0
14.300000000000061,35.725792592041984,51.27588463774463,1372.00108725857,6.915489132097719e-05,-2.2833804450783646e-05,0.0,0.0,0.0,0.0,344.2428260869565,70.0,0.0,255.0,0.0
14.350000000000062,35.7257960549117,51.27588349957629,1372.0010869661346,6.915489126413377e-05,-2.2833804337096808e-05,0.0,-5.684341886080801e-13,1.1368683772161603e-12,0.0,344.2340217391304,70.0,0.0,255.0,0.0
14.400000000000063,35.72579951778183,51.27588236140697,1372.0010866718367,6.915489126413377e-05,-2.2833804337096808e-05,0.0,5.684341886080801e-13,-1.1368683772161603e-12,0.0,344.22521739130434,70.0,0.0,255.0,0.0
14.450000000000063,35.725802980652425,51.27588122323669,1372.00108637847,6.915489132097719e-05,-2.2833804450783646e-05,0.0,5.684341886080801e-13,0.0,0.0,344.21641304347827,70.0,0.0,255.0,0.0
14.500000000000064,35.72580644352345,51.27588008506544,1372.0010860851035,6.915489132097719e-05,-2.2833804337096808e-05,0.0,-5.684341886080801e-13,2.2737367544323206e-12,0.0,344.20760869565214,70.0,0.0,255.0,0.0
14.550000000000065,35.72580990639493,51.27587894689324,1372.0010857908055,6.915489126413377e-05,-2.283380422340997e-05,0.0,0.0,0.0,0.0,344.19880434782607,70.0,0.0,255.0,0.0
14.600000000000065,35.72581336926683,51.275877808720054,1372.0010854993016,6.915489132097719e-05,-2.2833804337096808e-05,0.0,5.684341886080801e-13,-2.2737367544323206e-12,0.0,344.19,70.0,0.0,255.0,0.0
14.650000000000066,35.725816832139195,51.27587667054591,1372.001085205935,6.915489132097719e-05,-2.2833804450783646e-05,0.0,0.0,0.0,0.0,344.1811956521739,70.0,0.0,255.0,0.0
14.700000000000067,35.72582029501197,51.2758755323708,1372.0010849125683,6.915489132097719e-05,-2.2833804337096808e-05,0.0,0.0,1.1368683772161603e-12,0.0,344.1723913043478,70.0,0.0,255.0,0.0
14.750000000000068,35.72582375788521,51.27587439419472,1372.0010846192017,6.915489132097719e-05,-2.2833804337096808e-05,0.0,-5.684341886080801e-13,-1.1368683772161603e-12,0.0,344.1635869565217,70.0,0.0,255.0,0.0
14.800000000000068,35.72582722075887,51.275873256017675,1372.0010843267664,6.915489126413377e-05,-2.2833804450783646e-05,0.0,0.0,0.0,0.0,344.15478260869565,70.0,0.0,255.0,0.0
14.850000000000069,35.725830683632985,51.27587211783966,1372.0010840324685,6.915489132097719e-05,-2.2833804337096808e-05,0.0,5.684341886080801e-13,2.2737367544323206e-12,0.0,344.1459782608695,70.0,0.0,255.0,0.0
14.90000000000007,35.72583414650754,51.27587097966069,1372.0010837418959,6.915489132097719e-05,-2.283380422340997e-05,0.0,-5.684341886080801e-13,0.0,0.0,344.13717391304345,70.0,0.0,255.0,0.0
14.95000000000007,35.72583760938254,51.27586984148075,1372.0010834466666,6.915489126413377e-05,-2.2833804337096808e-05,0.0,0.0,-1.1368683772161603e-12,0.0,344.1283695652174,70.0,0.0,255.0,0.0
15.000000000000071,35.72584107225796,51.275868703299835,1372.0010831551626,6.915489132097719e-05,-2.2833804337096808e-05,0.0,5.684341886080801e-13,0.0,0.0,344.1195652173913,70.0,0.0,255.0,0.0
15.050000000000072,35.725844535133824,51.27586756511796,1372.0010828627273,6.915489132097719e-05,-2.2833804337096808e-05,0.0,0.0,-1.1368683772161603e-12,0.0,344.1107608695652,70.0,0.0,255.0,0.0
15.100000000000072,35.72584799801014,51.275866426935124,1372.0010825693607,6.915489132097719e-05,-2.2833804450783646e-05,0.0,0.0,0.0,0.0,344.1019565217391,70.0,0.0,255.0,0.0
15.150000000000073,35.7258514608869,51.275865288751305,1372.0010822750628,6.915489132097719e-05,-2.2833804337096808e-05,0.0,-5.684341886080801e-13,1.1368683772161603e-12,0.0,344.09315217391304,70.0,0.0,255.0,0.0
15.200000000000074,35.72585492376407,51.275864150566534,1372.0010819826275,6.915489126413377e-05,-2.2833804337096808e-05,0.0,0.0,0.0,0.0,344.08434782608697,70.0,0.0,255.0,0.0
15.250000000000075,35.725858386641704,51.27586301238078,1372.0010816911235,6.915489132097719e-05,-2.2833804337096808e-05,0.0,5.684341886080801e-13,0.0,0.0,344.07554347826084,70.0,0.0,255.0,0.0
15.300000000000075,35.72586184951977,51.275861874194064,1372.001081397757,6.915489132097719e-05,-2.2833804337096808e-05,0.0,-5.684341886080801e-13,0.0,0.0,344.06673913043477,70.0,0.0,255.0,0.0
15.350000000000076,35.72586531239827,51.275860736006386,1372.0010811071843,6.915489126413377e-05,-2.2833804337096808e-05,0.0,0.0,0.0,0.0,344.0579347826087,70.0,0.0,255.0,0.0
15.400000000000077,35.72586877527721,51.275859597817735,1372.001080814749,6.915489132097719e-05,-2.2833804337096808e-05,0.0,5.684341886080801e-13,0.0,0.0,344.04913043478257,70.0,0.0,255.0,0.0
15.450000000000077,35.7258722381566,51.27585845962812,1372.0010805195197,6.915489132097719e-05,-2.2833804337096808e-05,0.0,0.0,0.0,0.0,344.0403260869565,70.0,0.0,255.0,0.0
15.500000000000078,35.725875701036415,51.27585732143754,1372.0010802261531,6.915489132097719e-05,-2.2833804337096808e-05,0.0,0.0,-1.1368683772161603e-12,0.0,344.0315217391304,70.0,0.0,255.0,0.0
15.550000000000079,35.72587916391666,51.275856183245985,1372.0010799355805,6.915489132097719e-05,-2.2833804450783646e-05,0.0,-5.684341886080801e-13,0.0,0.0,344.02271739130435,70.0,0.0,255.0,0.0
15.60000000000008,35.72588262679736,51.275855045053476,1372.0010796431452,6.915489126413377e-05,-2.2833804337096808e-05,0.0,0.0,1.1368683772161603e-12,0.0,344.0139130434782,70.0,0.0,255.0,0.0
15.65000000000008,35.7258860896785,51.275853906859986,1372.0010793488473,6.915489132097719e-05,-2.2833804337096808e-05,0.0,5.684341886080801e-13,0.0,0.0,344.00510869565215,70.0,0.0,255.0,0.0
15.700000000000081,35.72588955256007,51.27585276866554,1372.0010790582746,6.915489132097719e-05,-2.2833804337096808e-05,0.0,-5.684341886080801e-13,1.1368683772161603e-12,0.0,343.9963043478261,70.0,0.0,255.0,0.0
15.750000000000082,35.725893015442075,51.2758516304701,1372.0010787658393,6.915489126413377e-05,-2.283380422340997e-05,0.0,-5.684341886080801e-13,0.0,0.0,343.9875,70.0,0.0,255.0,0.0
15.800000000000082,35.72589647832452,51.27585049227372,1372.001078473404,6.915489126413377e-05,-2.2833804337096808e-05,0.0,5.684341886080801e-13,-2.2737367544323206e-12,0.0,343.9786956521739,70.0,0.0,255.0,0.0
15.850000000000083,35.72589994120741,51.27584935407636,1372.0010781809688,6.915489132097719e-05,-2.2833804450783646e-05,0.0,0.0,0.0,0.0,343.9698913043478,70.0,0.0,255.0,0.0
15.900000000000084,35.72590340409072,51.27584821587803,1372.0010778885335,6.915489126413377e-05,-2.2833804337096808e-05,0.0,0.0,1.1368683772161603e-12,0.0,343.96108695652174,70.0,0.0,255.0,0.0
15.950000000000085,35.72590686697448,51.27584707767873,1372.0010775951669,6.915489132097719e-05,-2.2833804337096808e-05,0.0,5.684341886080801e-13,-1.1368683772161603e-12,0.0,343.9522826086956,70.0,0.0,255.0,0.0
16.000000000000085,35.72591032985868,51.275845939478465,1372.0010773055255,6.915489132097719e-05,-2.2833804450783646e-05,0.0,0.0,0.0,0.0,343.94347826086954,70.0,0.0,255.0,0.0
16.050000000000086,35.725913792743306,51.27584480127723,1372.001077012159,6.915489132097719e-05,-2.2833804337096808e-05,0.0,0.0,2.2737367544323206e-12,0.0,343.93467391304347,70.0,0.0,255.0,0.0
16.100000000000087,35.72591725562838,51.27584366307504,1372.0010767197236,6.915489132097719e-05,-2.283380422340997e-05,0.0,-5.684341886080801e-13,0.0,0.0,343.9258695652174,70.0,0.0,255.0,0.0
16.150000000000087,35.72592071851388,51.275842524871855,1372.0010764272884,6.915489126413377e-05,-2.2833804337096808e-05,0.0,0.0,-1.1368683772161603e-12,0.0,343.91706521739127,70.0,0.0,255.0,0.0
16.200000000000088,35.725924181399826,51.27584138666773,1372.0010761367157,6.915489132097719e-05,-2.2833804337096808e-05,0.0,5.684341886080801e-13,0.0,0.0,343.9082608695652,70.0,0.0,255.0,0.0
16.25000000000009,35.72592764428621,51.27584024846262,1372.001075843349,6.915489132097719e-05,-2.2833804337096808e-05,0.0,-5.684341886080801e-13,-1.1368683772161603e-12,0.0,343.8994565217391,70.0,0.0,255.0,0.0
16.30000000000009,35.72593110717303,51.275839110256534,1372.0010755527765,6.915489126413377e-05,-2.2833804450783646e-05,0.0,0.0,0.0,0.0,343.89065217391305,70.0,0.0,255.0,0.0
16.35000000000009,35.72593457006027,51.27583797204949,1372.0010752603412,6.915489132097719e-05,-2.2833804337096808e-05,0.0,5.684341886080801e-13,1.1368683772161603e-12,0.0,343.8818478260869,70.0,0.0,255.0,0.0
16.40000000000009,35.725938032947965,51.27583683384148,1372.0010749688372,6.915489132097719e-05,-2.2833804337096808e-05,0.0,0.0,0.0,0.0,343.87304347826085,70.0,0.0,255.0,0.0
16.45000000000009,35.72594149583609,51.27583569563249,1372.0010746773332,6.915489132097719e-05,-2.2833804337096808e-05,0.0,0.0,0.0,0.0,343.8642391304348,70.0,0.0,255.0,0.0
16.500000000000092,35.72594495872465,51.275834557422534,1372.0010743839666,6.915489132097719e-05,-2.2833804337096808e-05,0.0,-5.684341886080801e-13,0.0,0.0,343.85543478260865,70.0,0.0,255.0,0.0
16.550000000000093,35.725948421613644,51.275833419211615,1372.0010740915313,6.915489126413377e-05,-2.2833804337096808e-05,0.0,0.0,0.0,0.0,343.8466304347826,70.0,0.0,255.0,0.0
16.600000000000094,35.72595188450308,51.27583228099972,1372.0010738000274,6.915489132097719e-05,-2.2833804337096808e-05,0.0,5.684341886080801e-13,-1.1368683772161603e-12,0.0,343.8378260869565,70.0,0.0,255.0,0.0
16.650000000000095,35.72595534739294,51.27583114278686,1372.001073510386,6.915489132097719e-05,-2.2833804450783646e-05,0.0,-5.684341886080801e-13,0.0,0.0,343.82902173913044,70.0,0.0,255.0,0.0
16.700000000000095,35.725958810283245,51.27583000457302,1372.0010732179508,6.915489126413377e-05,-2.2833804337096808e-05,0.0,0.0,1.1368683772161603e-12,0.0,343.8202173913043,70.0,0.0,255.0,0.0
16.750000000000096,35.72596227317398,51.27582886635823,1372.0010729255155,6.915489132097719e-05,-2.2833804337096808e-05,0.0,5.684341886080801e-13,0.0,0.0,343.81141304347824,70.0,0.0,255.0,0.0
16.800000000000097,35.72596573606516,51.27582772814245,1372.0010726330802,6.915489132097719e-05,-2.2833804337096808e-05,0.0,0.0,0.0,0.0,343.80260869565217,70.0,0.0,255.0,0.0
16.850000000000097,35.72596919895677,51.27582658992571,1372.0010723415762,6.915489132097719e-05,-2.2833804337096808e-05,0.0,0.0,0.0,0.0,343.7938043478261,70.0,0.0,255.0,0.0
16.900000000000098,35.72597266184881,51.275825451708,1372.0010720500723,6.915489132097719e-05,-2.2833804337096808e-05,0.0,-5.684341886080801e-13,0.0,0.0,343.78499999999997,70.0,0.0,255.0,0.0
16.9500000000001,35.72597612474128,51.27582431348932,1372.0010717585683,6.915489126413377e-05,-2.2833804337096808e-05,0.0,0.0,0.0,0.0,343.7761956521739,70.0,0.0,255.0,0.0
17.0000000000001,35.7259795876342,51.27582317526966,1372.0010714670643,6.915489132097719e-05,-2.2833804337096808e-05,0.0,5.684341886080801e-13,0.0,0.0,343.7673913043478,70.0,0.0,255.0,0.0
17.0500000000001,35.72598305052754,51.27582203704905,1372.0010711764917,6.915489132097719e-05,-2.2833804337096808e-05,0.0,-5.684341886080801e-13,-1.1368683772161603e-12,0.0,343.7585869565217,70.0,0.0,255.0,0.0
17.1000000000001,35.72598651342132,51.275820898827455,1372.0010708840564,6.915489126413377e-05,-2.2833804450783646e-05,0.0,-5.684341886080801e-13,0.0,0.0,343.7497826086956,70.0,0.0,255.0,0.0
17.1500000000001,35.72598997631554,51.27581976060489,1372.001070591621,6.915489126413377e-05,-2.2833804337096808e-05,0.0,5.684341886080801e-13,1.1368683772161603e-12,0.0,343.74097826086955,70.0,0.0,255.0,0.0
17.200000000000102,35.72599343921017,51.27581862238136,1372.0010703019798,6.915489132097719e-05,-2.2833804337096808e-05,0.0,0.0,0.0,0.0,343.7321739130435,70.0,0.0,255.0,0.0
17.250000000000103,35.72599690210527,51.27581748415685,1372.0010700086132,6.915489126413377e-05,-2.2833804337096808e-05,0.0,0.0,1.1368683772161603e-12,0.0,343.72336956521735,70.0,0.0,255.0,0.0
17.300000000000104,35.726000365000786,51.275816345931375,1372.0010697180405,6.915489132097719e-05,-2.283380422340997e-05,0.0,5.684341886080801e-13,0.0,0.0,343.7145652173913,70.0,0.0,255.0,0.0
17.350000000000104,35.72600382789674,51.27581520770494,1372.0010694283992,6.915489132097719e-05,-2.2833804337096808e-05,0.0,0.0,-2.2737367544323206e-12,0.0,343.7057608695652,70.0,0.0,255.0,0.0
17.400000000000105,35.72600729079312,51.27581406947752,1372.0010691350326,6.915489132097719e-05,-2.2833804450783646e-05,0.0,0.0,0.0,0.0,343.69695652173914,70.0,0.0,255.0,0.0
17.450000000000106,35.726010753689955,51.27581293124913,1372.00106884446,6.915489132097719e-05,-2.2833804337096808e-05,0.0,-5.684341886080801e-13,1.1368683772161603e-12,0.0,343.688152173913,70.0,0.0,255.0,0.0
17.500000000000107,35.726014216587195,51.275811793019784,1372.001068552956,6.915489126413377e-05,-2.2833804337096808e-05,0.0,0.0,-1.1368683772161603e-12,0.0,343.67934782608694,70.0,0.0,255.0,0.0
17.550000000000107,35.72601767948488,51.27581065478945,1372.001068261452,6.915489132097719e-05,-2.2833804450783646e-05,0.0,5.684341886080801e-13,0.0,0.0,343.67054347826087,70.0,0.0,255.0,0.0
17.600000000000108,35.726021142383,51.275809516558155,1372.0010679718107,6.915489132097719e-05,-2.2833804337096808e-05,0.0,-5.684341886080801e-13,2.2737367544323206e-12,0.0,343.66173913043474,70.0,0.0,255.0,0.0
17.65000000000011,35.72602460528156,51.275808378325884,1372.001067681238,6.915489126413377e-05,-2.283380422340997e-05,0.0,0.0,0.0,0.0,343.65293478260867,70.0,0.0,255.0,0.0
17.70000000000011,35.72602806818054,51.27580724009264,1372.0010673888028,6.915489132097719e-05,-2.2833804337096808e-05,0.0,5.684341886080801e-13,-1.1368683772161603e-12,0.0,343.6441304347826,70.0,0.0,255.0,0.0
17.75000000000011,35.72603153107996,51.27580610185843,1372.0010670991614,6.915489132097719e-05,-2.2833804337096808e-05,0.0,0.0,0.0,0.0,343.6353260869565,70.0,0.0,255.0,0.0
17.80000000000011,35.7260349939798,51.275804963623244,1372.0010668085888,6.915489132097719e-05,-2.2833804337096808e-05,0.0,0.0,-1.1368683772161603e-12,0.0,343.6265217391304,70.0,0.0,255.0,0.0
17.85000000000011,35.726038456880104,51.27580382538708,1372.0010665161535,6.915489132097719e-05,-2.2833804450783646e-05,0.0,-5.684341886080801e-13,0.0,0.0,343.6177173913043,70.0,0.0,255.0,0.0
17.900000000000112,35.72604191978082,51.27580268714996,1372.0010662265122,6.915489126413377e-05,-2.2833804337096808e-05,0.0,0.0,1.1368683772161603e-12,0.0,343.60891304347825,70.0,0.0,255.0,0.0
17.950000000000113,35.72604538268195,51.27580154891186,1372.0010659368709,6.915489132097719e-05,-2.2833804337096808e-05,0.0,5.684341886080801e-13,0.0,0.0,343.6001086956522,70.0,0.0,255.0,0.0
18.000000000000114,35.72604884558354,51.27580041067279,1372.0010656435043,6.915489132097719e-05,-2.2833804337096808e-05,0.0,-5.684341886080801e-13,0.0,0.0,343.59130434782605,70.0,0.0,255.0,0.0
18.050000000000114,35.72605230848554,51.27579927243274,1372.001065353863,6.915489126413377e-05,-2.2833804337096808e-05,0.0,0.0,0.0,0.0,343.5825,70.0,0.0,255.0,0.0
18.100000000000115,35.72605577138799,51.27579813419173,1372.001065062359,6.915489132097719e-05,-2.2833804337096808e-05,0.0,5.684341886080801e-13,0.0,0.0,343.5736956521739,70.0,0.0,255.0,0.0
18.150000000000116,35.72605923429087,51.27579699594974,1372.001064770855,6.915489132097719e-05,-2.2833804337096808e-05,0.0,0.0,0.0,0.0,343.5648913043478,70.0,0.0,255.0,0.0
18.200000000000117,35.72606269719417,51.275795857706775,1372.001064482145,6.915489132097719e-05,-2.2833804337096808e-05,0.0,0.0,0.0,0.0,343.5560869565217,70.0,0.0,255.0,0.0
18.250000000000117,35.72606616009792,51.27579471946285,1372.001064190641,6.915489132097719e-05,-2.2833804337096808e-05,0.0,-5.684341886080801e-13,-1.1368683772161603e-12,0.0,343.54728260869564,70.0,0.0,255.0,0.0
18.300000000000118,35.72606962300209,51.27579358121795,1372.0010639009997,6.915489126413377e-05,-2.2833804450783646e-05,0.0,0.0,0.0,0.0,343.53847826086957,70.0,0.0,255.0,0.0
18.35000000000012,35.7260730859067,51.27579244297206,1372.0010636085644,6.915489132097719e-05,-2.2833804337096808e-05,0.0,5.684341886080801e-13,1.1368683772161603e-12,0.0,343.52967391304344,70.0,0.0,255.0,0.0
18.40000000000012,35.726076548811726,51.275791304725225,1372.0010633189231,6.915489132097719e-05,-2.2833804337096808e-05,0.0,-5.684341886080801e-13,0.0,0.0,343.52086956521737,70.0,0.0,255.0,0.0
18.45000000000012,35.726080011717194,51.27579016647741,1372.0010630283505,6.915489126413377e-05,-2.2833804337096808e-05,0.0,0.0,0.0,0.0,343.5120652173913,70.0,0.0,255.0,0.0
18.50000000000012,35.72608347462309,51.27578902822861,1372.0010627377778,6.915489132097719e-05,-2.2833804337096808e-05,0.0,5.684341886080801e-13,0.0,0.0,343.5032608695652,70.0,0.0,255.0,0.0
18.55000000000012,35.726086937529416,51.275787889978844,1372.0010624481365,6.915489132097719e-05,-2.2833804337096808e-05,0.0,-1.1368683772161603e-12,0.0,0.0,343.4944565217391,70.0,0.0,255.0,0.0
18.600000000000122,35.726090400436185,51.2757867517281,1372.0010621566325,6.915489120729035e-05,-2.2833804337096808e-05,0.0,0.0,-1.1368683772161603e-12,0.0,343.485652173913,70.0,0.0,255.0,0.0
18.650000000000123,35.72609386334336,51.27578561347639,1372.0010618669912,6.915489132097719e-05,-2.2833804450783646e-05,0.0,1.1368683772161603e-12,0.0,0.0,343.47684782608695,70.0,0.0,255.0,0.0
18.700000000000124,35.72609732625098,51.2757844752237,1372.0010615764186,6.915489132097719e-05,-2.2833804337096808e-05,0.0,0.0,1.1368683772161603e-12,0.0,343.4680434782608,70.0,0.0,255.0,0.0
18.750000000000124,35.726100789159034,51.27578333697005,1372.0010612877086,6.915489132097719e-05,-2.2833804337096808e-05,0.0,0.0,0.0,0.0,343.45923913043475,70.0,0.0,255.0,0.0
18.800000000000125,35.726104252067515,51.27578219871542,1372.0010609962046,6.915489132097719e-05,-2.2833804337096808e-05,0.0,-5.684341886080801e-13,1.1368683772161603e-12,0.0,343.4504347826087,70.0,0.0,255.0,0.0
18.850000000000126,35.72610771497642,51.27578106045981,1372.001060705632,6.915489126413377e-05,-2.283380422340997e-05,0.0,0.0,0.0,0.0,343.4416304347826,70.0,0.0,255.0,0.0
18.900000000000126,35.72611117788576,51.275779922203235,1372.0010604159907,6.915489132097719e-05,-2.2833804337096808e-05,0.0,5.684341886080801e-13,-2.2737367544323206e-12,0.0,343.4328260869565,70.0,0.0,255.0,0.0
18.950000000000127,35.72611464079553,51.2757787839457,1372.001060125418,6.915489132097719e-05,-2.2833804450783646e-05,0.0,-5.684341886080801e-13,0.0,0.0,343.4240217391304,70.0,0.0,255.0,0.0
19.000000000000128,35.72611810370573,51.275777645687164,1372.0010598357767,6.915489126413377e-05,-2.2833804337096808e-05,0.0,0.0,1.1368683772161603e-12,0.0,343.41521739130434,70.0,0.0,255.0,0.0
19.05000000000013,35.726121566616364,51.27577650742767,1372.001059545204,6.915489132097719e-05,-2.2833804337096808e-05,0.0,5.684341886080801e-13,-1.1368683772161603e-12,0.0,343.40641304347827,70.0,0.0,255.0,0.0
19.10000000000013,35.726125029527424,51.27577536916719,1372.0010592546314,6.915489132097719e-05,-2.2833804450783646e-05,0.0,0.0,0.0,0.0,343.39760869565214,70.0,0.0,255.0,0.0
19.15000000000013,35.7261284924389,51.275774230905746,1372.0010589659214,6.915489132097719e-05,-2.2833804337096808e-05,0.0,0.0,2.2737367544323206e-12,0.0,343.38880434782607,70.0,0.0,255.0,0.0
19.20000000000013,35.72613195535083,51.275773092643334,1372.0010586753488,6.915489132097719e-05,-2.283380422340997e-05,0.0,-5.684341886080801e-13,0.0,0.0,343.38,70.0,0.0,255.0,0.0
19.25000000000013,35.726135418263176,51.27577195437995,1372.0010583857074,6.915489126413377e-05,-2.2833804337096808e-05,0.0,0.0,-1.1368683772161603e-12,0.0,343.37119565217387,70.0,0.0,255.0,0.0
19.300000000000132,35.726138881175956,51.27577081611557,1372.0010580960661,6.915489132097719e-05,-2.2833804337096808e-05,0.0,5.684341886080801e-13,0.0,0.0,343.3623913043478,70.0,0.0,255.0,0.0
19.350000000000133,35.72614234408915,51.275769677850235,1372.0010578054935,6.915489132097719e-05,-2.2833804337096808e-05,0.0,-5.684341886080801e-13,-1.1368683772161603e-12,0.0,343.3535869565217,70.0,0.0,255.0,0.0
19.400000000000134,35.726145807002794,51.27576853958392,1372.0010575158522,6.915489126413377e-05,-2.2833804450783646e-05,0.0,0.0,0.0,0.0,343.34478260869565,70.0,0.0,255.0,0.0
19.450000000000134,35.72614926991685,51.275767401316635,1372.0010572252795,6.915489132097719e-05,-2.2833804337096808e-05,0.0,5.684341886080801e-13,1.1368683772161603e-12,0.0,343.3359782608695,70.0,0.0,255.0,0.0
19.500000000000135,35.726152732831345,51.27576626304837,1372.0010569365695,6.915489132097719e-05,-2.2833804337096808e-05,0.0,0.0,0.0,0.0,343.32717391304345,70.0,0.0,255.0,0.0
19.550000000000136,35.72615619574626,51.275765124779134,1372.0010566469282,6.915489132097719e-05,-2.2833804337096808e-05,0.0,0.0,0.0,0.0,343.3183695652174,70.0,0.0,255.0,0.0
19.600000000000136,35.726159658661615,51.27576398650892,1372.0010563572869,6.915489132097719e-05,-2.2833804337096808e-05,0.0,-5.684341886080801e-13,0.0,0.0,343.3095652173913,70.0,0.0,255.0,0.0
19.650000000000137,35.726163121577386,51.27576284823775,1372.0010560685769,6.915489126413377e-05,-2.2833804337096808e-05,0.0,0.0,0.0,0.0,343.3007608695652,70.0,0.0,255.0,0.0
19.700000000000138,35.7261665844936,51.27576170996558,1372.001055777073,6.915489132097719e-05,-2.2833804337096808e-05,0.0,5.684341886080801e-13,0.0,0.0,343.2919565217391,70.0,0.0,255.0,0.0
19.75000000000014,35.72617004741023,51.275760571692445,1372.001055488363,6.915489132097719e-05,-2.2833804337096808e-05,0.0,-5.684341886080801e-13,0.0,0.0,343.28315217391304,70.0,0.0,255.0,0.0
19.80000000000014,35.726173510327285,51.27575943341834,1372.001055196859,6.915489126413377e-05,-2.2833804337096808e-05,0.0,0.0,-1.1368683772161603e-12,0.0,343.2743478260869,70.0,0.0,255.0,0.0
19.85000000000014,35.726176973244776,51.275758295143255,1372.0010549090803,6.915489132097719e-05,-2.2833804450783646e-05,0.0,5.684341886080801e-13,0.0,0.0,343.26554347826084,70.0,0.0,255.0,0.0
19.90000000000014,35.726180436162686,51.27575715686719,1372.0010546203703,6.915489132097719e-05,-2.2833804337096808e-05,0.0,0.0,1.1368683772161603e-12,0.0,343.25673913043477,70.0,0.0,255.0,0.0
19.95000000000014,35.72618389908103,51.275756018590165,1372.0010543288663,6.915489132097719e-05,-2.2833804337096808e-05,0.0,0.0,0.0,0.0,343.2479347826087,70.0,0.0,255.0,0.0
20.000000000000142,35.726187361999806,51.27575488031215,1372.001054042019,6.915489132097719e-05,-2.2833804337096808e-05,0.0,-1.1368683772161603e-12,1.1368683772161603e-12,0.0,343.23913043478257,70.0,0.0,255.0,0.0
20.050000000000143,35.726190824919,51.27575374203317,1372.001053750515,6.915489120729035e-05,-2.283380422340997e-05,0.0,0.0,0.0,0.0,343.2303260869565,70.0,0.0,255.0,0.0
20.100000000000144,35.726194287838624,51.27575260375321,1372.0010534627363,6.915489132097719e-05,-2.2833804337096808e-05,0.0,1.1368683772161603e-12,-2.2737367544323206e-12,0.0,343.2215217391304,70.0,0.0,255.0,0.0
20.150000000000144,35.72619775075869,51.275751465472275,1372.0010531721637,6.915489132097719e-05,-2.2833804450783646e-05,0.0,-5.684341886080801e-13,0.0,0.0,343.2127173913043,70.0,0.0,255.0,0.0
20.200000000000145,35.72620121367915,51.275750327190366,1372.0010528825223,6.915489126413377e-05,-2.2833804337096808e-05,0.0,0.0,1.1368683772161603e-12,0.0,343.2039130434782,70.0,0.0,255.0,0.0
20.250000000000146,35.72620467660006,51.27574918890748,1372.0010525947437,6.915489132097719e-05,-2.2833804337096808e-05,0.0,5.684341886080801e-13,-1.1368683772161603e-12,0.0,343.19510869565215,70.0,0.0,255.0,0.0
20.300000000000146,35.7262081395214,51.275748050623626,1372.0010523051023,6.915489132097719e-05,-2.2833804450783646e-05,0.0,-5.684341886080801e-13,0.0,0.0,343.1863043478261,70.0,0.0,255.0,0.0
20.350000000000147,35.72621160244316,51.27574691233878,1372.0010520173237,6.915489126413377e-05,-2.2833804337096808e-05,0.0,0.0,2.2737367544323206e-12,0.0,343.17749999999995,70.0,0.0,255.0,0.0
20.400000000000148,35.72621506536533,51.27574577405297,1372.001051726751,6.915489132097719e-05,-2.283380422340997e-05,0.0,5.684341886080801e-13,0.0,0.0,343.1686956521739,70.0,0.0,255.0,0.0
20.45000000000015,35.72621852828796,51.27574463576618,1372.0010514361784,6.915489132097719e-05,-2.2833804337096808e-05,0.0,0.0,-2.2737367544323206e-12,0.0,343.1598913043478,70.0,0.0,255.0,0.0
20.50000000000015,35.72622199121099,51.27574349747842,1372.0010511483997,6.915489132097719e-05,-2.2833804450783646e-05,0.0,0.0,0.0,0.0,343.15108695652174,70.0,0.0,255.0,0.0
20.55000000000015,35.72622545413446,51.27574235918968,1372.001050860621,6.915489132097719e-05,-2.2833804337096808e-05,0.0,-5.684341886080801e-13,1.1368683772161603e-12,0.0,343.1422826086956,70.0,0.0,255.0,0.0
20.60000000000015,35.726228917058336,51.275741220899974,1372.001050571911,6.915489126413377e-05,-2.2833804337096808e-05,0.0,0.0,-1.1368683772161603e-12,0.0,343.13347826086954,70.0,0.0,255.0,0.0
20.65000000000015,35.72623237998266,51.275740082609275,1372.0010502822697,6.915489132097719e-05,-2.2833804450783646e-05,0.0,5.684341886080801e-13,0.0,0.0,343.12467391304347,70.0,0.0,255.0,0.0
20.700000000000152,35.7262358429074,51.27573894431761,1372.0010499935597,6.915489132097719e-05,-2.2833804337096808e-05,0.0,-5.684341886080801e-13,2.2737367544323206e-12,0.0,343.11586956521734,70.0,0.0,255.0,0.0
20.750000000000153,35.726239305832564,51.27573780602497,1372.0010497048497,6.915489126413377e-05,-2.283380422340997e-05,0.0,0.0,0.0,0.0,343.10706521739127,70.0,0.0,255.0,0.0
20.800000000000153,35.726242768758155,51.27573666773135,1372.0010494152084,6.915489132097719e-05,-2.2833804337096808e-05,0.0,5.684341886080801e-13,-1.1368683772161603e-12,0.0,343.0982608695652,70.0,0.0,255.0,0.0
20.850000000000154,35.72624623168418,51.27573552943675,1372.0010491264984,6.915489132097719e-05,-2.2833804337096808e-05,0.0,0.0,0.0,0.0,343.0894565217391,70.0,0.0,255.0,0.0
20.900000000000155,35.72624969461061,51.275734391141185,1372.0010488377884,6.915489132097719e-05,-2.2833804337096808e-05,0.0,0.0,-1.1368683772161603e-12,0.0,343.080652173913,70.0,0.0,255.0,0.0
20.950000000000156,35.726253157537485,51.27573325284463,1372.0010485500097,6.915489132097719e-05,-2.2833804450783646e-05,0.0,-5.684341886080801e-13,0.0,0.0,343.0718478260869,70.0,0.0,255.0,0.0
21.000000000000156,35.72625662046478,51.27573211454711,1372.0010482612997,6.915489126413377e-05,-2.2833804337096808e-05,0.0,0.0,1.1368683772161603e-12,0.0,343.06304347826085,70.0,0.0,255.0,0.0
21.050000000000157,35.726260083392496,51.2757309762486,1372.001047970727,6.915489132097719e-05,-2.2833804337096808e-05,0.0,5.684341886080801e-13,0.0,0.0,343.0542391304348,70.0,0.0,255.0,0.0
21.100000000000158,35.72626354632064,51.27572983794913,1372.001047682017,6.915489132097719e-05,-2.2833804337096808e-05,0.0,-5.684341886080801e-13,0.0,0.0,343.04543478260865,70.0,0.0,255.0,0.0
21.15000000000016,35.726267009249206,51.27572869964867,1372.0010473970324,6.915489126413377e-05,-2.2833804337096808e-05,0.0,0.0,0.0,0.0,343.0366304347826,70.0,0.0,255.0,0.0
21.20000000000016,35.7262704721782,51.27572756134724,1372.001047107391,6.915489132097719e-05,-2.2833804337096808e-05,0.0,5.684341886080801e-13,0.0,0.0,343.0278260869565,70.0,0.0,255.0,0.0
21.25000000000016,35.72627393510761,51.27572642304483,1372.001046818681,6.915489132097719e-05,-2.2833804337096808e-05,0.0,0.0,0.0,0.0,343.0190217391304,70.0,0.0,255.0,0.0
21.30000000000016,35.72627739803745,51.27572528474143,1372.0010465290397,6.915489132097719e-05,-2.2833804337096808e-05,0.0,0.0,0.0,0.0,343.0102173913043,70.0,0.0,255.0,0.0
21.35000000000016,35.72628086096772,51.27572414643708,1372.0010462403297,6.915489132097719e-05,-2.2833804337096808e-05,0.0,-5.684341886080801e-13,-1.1368683772161603e-12,0.0,343.00141304347824,70.0,0.0,255.0,0.0
21.400000000000162,35.726284323898405,51.27572300813173,1372.001045952551,6.915489126413377e-05,-2.2833804450783646e-05,0.0,0.0,0.0,0.0,342.99260869565217,70.0,0.0,255.0,0.0
21.450000000000163,35.726287786829516,51.27572186982542,1372.001045663841,6.915489132097719e-05,-2.2833804337096808e-05,0.0,0.0,1.1368683772161603e-12,0.0,342.98380434782604,70.0,0.0,255.0,0.0
21.500000000000163,35.726291249761054,51.27572073151812,1372.001045375131,6.915489126413377e-05,-2.2833804337096808e-05,0.0,-5.684341886080801e-13,0.0,0.0,342.97499999999997,70.0,0.0,255.0,0.0
21.550000000000164,35.72629471269301,51.27571959320984,1372.001045086421,6.915489126413377e-05,-2.2833804337096808e-05,0.0,5.684341886080801e-13,1.1368683772161603e-12,0.0,342.9661956521739,70.0,0.0,255.0,0.0
21.600000000000165,35.72629817562539,51.27571845490059,1372.0010447986424,6.915489132097719e-05,-2.283380422340997e-05,0.0,5.684341886080801e-13,0.0,0.0,342.9573913043478,70.0,0.0,255.0,0.0
21.650000000000166,35.72630163855819,51.27571731659037,1372.0010445099324,6.915489132097719e-05,-2.2833804337096808e-05,0.0,-5.684341886080801e-13,-2.2737367544323206e-12,0.0,342.9485869565217,70.0,0.0,255.0,0.0
21.700000000000166,35.72630510149143,51.27571617827916,1372.0010442212224,6.915489126413377e-05,-2.2833804450783646e-05,0.0,0.0,0.0,0.0,342.9397826086956,70.0,0.0,255.0,0.0
21.750000000000167,35.72630856442507,51.27571503996697,1372.001043934375,6.915489132097719e-05,-2.2833804337096808e-05,0.0,5.684341886080801e-13,1.1368683772161603e-12,0.0,342.93097826086955,70.0,0.0,255.0,0.0
21.800000000000168,35.72631202735915,51.27571390165381,1372.001043645665,6.915489132097719e-05,-2.2833804337096808e-05,0.0,0.0,-1.1368683772161603e-12,0.0,342.9221739130434,70.0,0.0,255.0,0.0
21.85000000000017,35.72631549029366,51.27571276333967,1372.0010433588177,6.915489132097719e-05,-2.2833804450783646e-05,0.0,0.0,0.0,0.0,342.91336956521735,70.0,0.0,255.0,0.0
21.90000000000017,35.726318953228564,51.27571162502455,1372.0010430719703,6.915489132097719e-05,-2.2833804337096808e-05,0.0,-5.684341886080801e-13,2.2737367544323206e-12,0.0,342.9045652173913,70.0,0.0,255.0,0.0
21.95000000000017,35.7263224161639,51.275710486708455,1372.001042782329,6.915489126413377e-05,-2.283380422340997e-05,0.0,0.0,0.0,0.0,342.8957608695652,70.0,0.0,255.0,0.0
22.00000000000017,35.726325879099676,51.27570934839138,1372.0010424954817,6.915489132097719e-05,-2.2833804337096808e-05,0.0,5.684341886080801e-13,-1.1368683772161603e-12,0.0,342.8869565217391,70.0,0.0,255.0,0.0
22.05000000000017,35.72632934203586,51.275708210073326,1372.0010422067717,6.915489132097719e-05,-2.2833804337096808e-05,0.0,-5.684341886080801e-13,0.0,0.0,342.878152173913,70.0,0.0,255.0,0.0
22.100000000000172,35.72633280497247,51.27570707175429,1372.001041918993,6.915489126413377e-05,-2.2833804337096808e-05,0.0,0.0,-1.1368683772161603e-12,0.0,342.86934782608694,70.0,0.0,255.0,0.0
22.150000000000173,35.7263362679095,51.27570593343428,1372.001041630283,6.915489132097719e-05,-2.2833804450783646e-05,0.0,5.684341886080801e-13,-1.1368683772161603e-12,0.0,342.86054347826087,70.0,0.0,255.0,0.0
22.200000000000173,35.72633973084696,51.275704795113285,1372.0010413434356,6.915489132097719e-05,-2.2833804450783646e-05,0.0,0.0,1.1368683772161603e-12,0.0,342.85173913043474,70.0,0.0,255.0,0.0
22.250000000000174,35.72634319378484,51.27570365679133,1372.0010410547256,6.915489132097719e-05,-2.2833804337096808e-05,0.0,0.0,2.2737367544323206e-12,0.0,342.84293478260867,70.0,0.0,255.0,0.0
22.300000000000175,35.72634665672313,51.27570251846838,1372.0010407678783,6.915489132097719e-05,-2.283380422340997e-05,0.0,-5.684341886080801e-13,0.0,0.0,342.8341304347826,70.0,0.0,255.0,0.0
22.350000000000176,35.72635011966185,51.27570138014446,1372.0010404791683,6.915489126413377e-05,-2.2833804337096808e-05,0.0,0.0,-1.1368683772161603e-12,0.0,342.82532608695647,70.0,0.0,255.0,0.0
22.400000000000176,35.72635358260099,51.27570024181954,1372.0010401932523,6.915489132097719e-05,-2.2833804337096808e-05,0.0,5.684341886080801e-13,0.0,0.0,342.8165217391304,70.0,0.0,255.0,0.0
22.450000000000177,35.72635704554056,51.27569910349367,1372.0010399045423,6.915489132097719e-05,-2.2833804337096808e-05,0.0,-5.684341886080801e-13,-1.1368683772161603e-12,0.0,342.8077173913043,70.0,0.0,255.0,0.0
22.500000000000178,35.726360508480546,51.27569796516681,1372.0010396186262,6.915489126413377e-05,-2.2833804450783646e-05,0.0,0.0,0.0,0.0,342.79891304347825,70.0,0.0,255.0,0.0
22.55000000000018,35.726363971420945,51.27569682683896,1372.0010393308476,6.915489132097719e-05,-2.2833804337096808e-05,0.0,5.684341886080801e-13,1.1368683772161603e-12,0.0,342.7901086956521,70.0,0.0,255.0,0.0
22.60000000000018,35.72636743436178,51.275695688510154,1372.0010390421376,6.915489132097719e-05,-2.2833804337096808e-05,0.0,0.0,0.0,0.0,342.78130434782605,70.0,0.0,255.0,0.0
22.65000000000018,35.72637089730303,51.275694550180354,1372.0010387552902,6.915489132097719e-05,-2.2833804337096808e-05,0.0,0.0,0.0,0.0,342.7725,70.0,0.0,255.0,0.0
22.70000000000018,35.726374360244684,51.27569341184957,1372.0010384684429,6.915489132097719e-05,-2.2833804337096808e-05,0.0,-5.684341886080801e-13,0.0,0.0,342.7636956521739,70.0,0.0,255.0,0.0
22.75000000000018,35.726377823186766,51.27569227351781,1372.0010381797329,6.915489126413377e-05,-2.2833804337096808e-05,0.0,0.0,0.0,0.0,342.7548913043478,70.0,0.0,255.0,0.0
22.800000000000182,35.72638128612929,51.275691135185085,1372.0010378910229,6.915489132097719e-05,-2.2833804337096808e-05,0.0,5.684341886080801e-13,0.0,0.0,342.7460869565217,70.0,0.0,255.0,0.0
22.850000000000183,35.72638474907221,51.275689996851355,1372.0010376051068,6.915489132097719e-05,-2.2833804337096808e-05,0.0,-5.684341886080801e-13,0.0,0.0,342.73728260869564,70.0,0.0,255.0,0.0
22.900000000000183,35.72638821201556,51.275688858516666,1372.0010373182595,6.915489126413377e-05,-2.2833804337096808e-05,0.0,-5.684341886080801e-13,-1.1368683772161603e-12,0.0,342.7284782608695,70.0,0.0,255.0,0.0
22.950000000000184,35.72639167495933,51.27568772018098,1372.0010370304808,6.915489126413377e-05,-2.2833804450783646e-05,0.0,5.684341886080801e-13,0.0,0.0,342.71967391304344,70.0,0.0,255.0,0.0
23.000000000000185,35.72639513790351,51.275686581844326,1372.0010367436334,6.915489132097719e-05,-2.2833804337096808e-05,0.0,0.0,1.1368683772161603e-12,0.0,342.71086956521737,70.0,0.0,255.0,0.0
23.050000000000185,35.72639860084813,51.275685443506696,1372.001036456786,6.915489126413377e-05,-2.2833804337096808e-05,0.0,0.0,0.0,0.0,342.7020652173913,70.0,0.0,255.0,0.0
23.100000000000186,35.72640206379315,51.27568430516808,1372.0010361699387,6.915489132097719e-05,-2.2833804337096808e-05,0.0,5.684341886080801e-13,1.1368683772161603e-12,0.0,342.69326086956517,70.0,0.0,255.0,0.0
23.150000000000187,35.72640552673861,51.27568316682848,1372.00103588216,6.915489132097719e-05,-2.283380422340997e-05,0.0,0.0,0.0,0.0,342.6844565217391,70.0,0.0,255.0,0.0
23.200000000000188,35.726408989684465,51.275682028487914,1372.0010355953127,6.915489132097719e-05,-2.2833804337096808e-05,0.0,0.0,-2.2737367544323206e-12,0.0,342.675652173913,70.0,0.0,255.0,0.0
23.25000000000019,35.726412452630754,51.275680890146354,1372.001035307534,6.915489132097719e-05,-2.2833804450783646e-05,0.0,-5.684341886080801e-13,0.0,0.0,342.66684782608695,70.0,0.0,255.0,0.0
23.30000000000019,35.72641591557746,51.275679751803814,1372.0010350206867,6.915489126413377e-05,-2.2833804337096808e-05,0.0,0.0,1.1368683772161603e-12,0.0,342.6580434782608,70.0,0.0,255.0,0.0
23.35000000000019,35.72641937852458,51.2756786134603,1372.0010347347707,6.915489132097719e-05,-2.2833804337096808e-05,0.0,5.684341886080801e-13,-1.1368683772161603e-12,0.0,342.64923913043475,70.0,0.0,255.0,0.0
23.40000000000019,35.726422841472136,51.275677475115806,1372.001034446992,6.915489132097719e-05,-2.2833804450783646e-05,0.0,-5.684341886080801e-13,0.0,0.0,342.6404347826087,70.0,0.0,255.0,0.0
23.45000000000019,35.7264263044201,51.27567633677032,1372.001034161076,6.915489126413377e-05,-2.2833804337096808e-05,0.0,0.0,2.2737367544323206e-12,0.0,342.63163043478255,70.0,0.0,255.0,0.0
23.500000000000192,35.72642976736848,51.27567519842387,1372.0010338732973,6.915489132097719e-05,-2.283380422340997e-05,0.0,5.684341886080801e-13,0.0,0.0,342.6228260869565,70.0,0.0,255.0,0.0
23.550000000000193,35.726433230317284,51.27567406007642,1372.0010335855186,6.915489132097719e-05,-2.2833804337096808e-05,0.0,0.0,-1.1368683772161603e-12,0.0,342.6140217391304,70.0,0.0,255.0,0.0
23.600000000000193,35.72643669326651,51.275672921728,1372.0010332996026,6.915489132097719e-05,-2.2833804337096808e-05,0.0,0.0,0.0,0.0,342.60521739130434,70.0,0.0,255.0,0.0
23.650000000000194,35.72644015621614,51.27567178337861,1372.0010330136865,6.915489132097719e-05,-2.2833804337096808e-05,0.0,-5.684341886080801e-13,-1.1368683772161603e-12,0.0,342.5964130434782,70.0,0.0,255.0,0.0
23.700000000000195,35.72644361916619,51.27567064502822,1372.0010327277705,6.915489126413377e-05,-2.2833804450783646e-05,0.0,0.0,0.0,0.0,342.58760869565214,70.0,0.0,255.0,0.0
23.750000000000195,35.72644708211667,51.27566950667686,1372.0010324390605,6.915489132097719e-05,-2.2833804337096808e-05,0.0,5.684341886080801e-13,1.1368683772161603e-12,0.0,342.57880434782606,70.0,0.0,255.0,0.0
23.800000000000196,35.72645054506756,51.27566836832452,1372.0010321540758,6.915489132097719e-05,-2.2833804337096808e-05,0.0,-5.684341886080801e-13,0.0,0.0,342.57,70.0,0.0,255.0,0.0
23.850000000000197,35.72645400801889,51.2756672299712,1372.0010318653658,6.915489126413377e-05,-2.2833804337096808e-05,0.0,0.0,0.0,0.0,342.56119565217386,70.0,0.0,255.0,0.0
23.900000000000198,35.72645747097061,51.27566609161688,1372.0010315794498,6.915489132097719e-05,-2.2833804337096808e-05,0.0,5.684341886080801e-13,0.0,0.0,342.5523913043478,70.0,0.0,255.0,0.0
23.9500000000002,35.726460933922745,51.2756649532616,1372.0010312926024,6.915489132097719e-05,-2.2833804337096808e-05,0.0,0.0,0.0,0.0,342.5435869565217,70.0,0.0,255.0,0.0
24.0000000000002,35.726464396875315,51.27566381490533,1372.0010310066864,6.915489132097719e-05,-2.2833804337096808e-05,0.0,0.0,-1.1368683772161603e-12,0.0,342.5347826086956,70.0,0.0,255.0,0.0
24.0500000000002,35.7264678598283,51.27566267654808,1372.001030719839,6.915489132097719e-05,-2.2833804450783646e-05,0.0,-5.684341886080801e-13,0.0,0.0,342.5259782608695,70.0,0.0,255.0,0.0
24.1000000000002,35.72647132278169,51.275661538189844,1372.0010304348543,6.915489126413377e-05,-2.2833804337096808e-05,0.0,0.0,1.1368683772161603e-12,0.0,342.51717391304345,70.0,0.0,255.0,0.0
24.1500000000002,35.72647478573551,51.275660399830635,1372.001030148007,6.915489132097719e-05,-2.2833804337096808e-05,0.0,5.684341886080801e-13,0.0,0.0,342.5083695652174,70.0,0.0,255.0,0.0
24.200000000000202,35.726478248689745,51.27565926147044,1372.001029862091,6.915489132097719e-05,-2.2833804337096808e-05,0.0,-5.684341886080801e-13,0.0,0.0,342.49956521739125,70.0,0.0,255.0,0.0
24.250000000000203,35.7264817116444,51.27565812310927,1372.0010295771062,6.915489126413377e-05,-2.2833804337096808e-05,0.0,0.0,0.0,0.0,342.4907608695652,70.0,0.0,255.0,0.0
24.300000000000203,35.72648517459945,51.275656984747094,1372.0010292902589,6.915489132097719e-05,-2.2833804337096808e-05,0.0,5.684341886080801e-13,0.0,0.0,342.4819565217391,70.0,0.0,255.0,0.0
24.350000000000204,35.726488637554944,51.275655846383955,1372.0010290024802,6.915489132097719e-05,-2.2833804337096808e-05,0.0,-1.1368683772161603e-12,0.0,0.0,342.47315217391304,70.0,0.0,255.0,0.0
24.400000000000205,35.72649210051083,51.27565470801983,1372.0010287165642,6.915489120729035e-05,-2.2833804337096808e-05,0.0,0.0,0.0,0.0,342.4643478260869,70.0,0.0,255.0,0.0
24.450000000000205,35.726495563467154,51.27565356965473,1372.0010284306481,6.915489132097719e-05,-2.2833804337096808e-05,0.0,1.1368683772161603e-12,-1.1368683772161603e-12,0.0,342.45554347826084,70.0,0.0,255.0,0.0
24.500000000000206,35.72649902642389,51.27565243128864,1372.0010281456634,6.915489132097719e-05,-2.2833804450783646e-05,0.0,0.0,0.0,0.0,342.44673913043476,70.0,0.0,255.0,0.0
24.550000000000207,35.72650248938103,51.275651292921566,1372.0010278569534,6.915489132097719e-05,-2.2833804337096808e-05,0.0,0.0,1.1368683772161603e-12,0.0,342.43793478260864,70.0,0.0,255.0,0.0
24.600000000000207,35.726505952338606,51.275650154553524,1372.0010275729,6.915489132097719e-05,-2.2833804337096808e-05,0.0,-5.684341886080801e-13,0.0,0.0,342.42913043478256,70.0,0.0,255.0,0.0
24.650000000000208,35.726509415296576,51.27564901618449,1372.001027286984,6.915489126413377e-05,-2.2833804337096808e-05,0.0,0.0,1.1368683772161603e-12,0.0,342.4203260869565,70.0,0.0,255.0,0.0
24.70000000000021,35.72651287825499,51.27564787781447,1372.0010270001367,6.915489132097719e-05,-2.283380422340997e-05,0.0,5.684341886080801e-13,0.0,0.0,342.4115217391304,70.0,0.0,255.0,0.0
24.75000000000021,35.726516341213795,51.27564673944347,1372.0010267142206,6.915489132097719e-05,-2.2833804337096808e-05,0.0,-5.684341886080801e-13,-2.2737367544323206e-12,0.0,342.4027173913043,70.0,0.0,255.0,0.0
24.80000000000021,35.72651980417302,51.27564560107148,1372.0010264283046,6.915489126413377e-05,-2.2833804450783646e-05,0.0,0.0,0.0,0.0,342.3939130434782,70.0,0.0,255.0,0.0
24.85000000000021,35.726523267132656,51.27564446269852,1372.0010261414573,6.915489132097719e-05,-2.2833804337096808e-05,0.0,5.684341886080801e-13,1.1368683772161603e-12,0.0,342.38510869565215,70.0,0.0,255.0,0.0
24.90000000000021,35.72652673009272,51.275643324324584,1372.0010258555412,6.915489132097719e-05,-2.2833804337096808e-05,0.0,0.0,-1.1368683772161603e-12,0.0,342.3763043478261,70.0,0.0,255.0,0.0
24.950000000000212,35.7265301930532,51.27564218594965,1372.0010255705565,6.915489132097719e-05,-2.2833804450783646e-05,0.0,0.0,0.0,0.0,342.36749999999995,70.0,0.0,255.0,0.0
25.000000000000213,35.72653365601409,51.275641047573735,1372.0010252846405,6.915489132097719e-05,-2.2833804337096808e-05,0.0,-5.684341886080801e-13,2.2737367544323206e-12,0.0,342.3586956521739,70.0,0.0,255.0,0.0
25.050000000000214,35.726537118975386,51.27563990919684,1372.0010249996558,6.915489126413377e-05,-2.283380422340997e-05,0.0,0.0,0.0,0.0,342.3498913043478,70.0,0.0,255.0,0.0
25.100000000000215,35.72654058193712,51.27563877081896,1372.0010247137398,6.915489132097719e-05,-2.2833804337096808e-05,0.0,5.684341886080801e-13,-1.1368683772161603e-12,0.0,342.3410869565217,70.0,0.0,255.0,0.0
25.150000000000215,35.72654404489924,51.275637632440095,1372.001024428755,6.915489132097719e-05,-2.2833804337096808e-05,0.0,-5.684341886080801e-13,0.0,0.0,342.3322826086956,70.0,0.0,255.0,0.0
25.200000000000216,35.726547507861795,51.27563649406026,1372.0010241437703,6.915489126413377e-05,-2.2833804337096808e-05,0.0,0.0,-1.1368683772161603e-12,0.0,342.32347826086954,70.0,0.0,255.0,0.0
25.250000000000217,35.72655097082476,51.27563535567941,1372.0010238578543,6.915489132097719e-05,-2.2833804450783646e-05,0.0,5.684341886080801e-13,0.0,0.0,342.31467391304346,70.0,0.0,255.0,0.0
25.300000000000217,35.72655443378813,51.275634217297615,1372.0010235719383,6.915489132097719e-05,-2.2833804337096808e-05,0.0,0.0,1.1368683772161603e-12,0.0,342.30586956521734,70.0,0.0,255.0,0.0
25.350000000000218,35.72655789675193,51.275633078914815,1372.0010232860222,6.915489132097719e-05,-2.2833804337096808e-05,0.0,0.0,0.0,0.0,342.29706521739126,70.0,0.0,255.0,0.0
25.40000000000022,35.726561359716136,51.27563194053104,1372.0010230029002,6.915489132097719e-05,-2.2833804337096808e-05,0.0,-5.684341886080801e-13,0.0,0.0,342.2882608695652,70.0,0.0,255.0,0.0
25.45000000000022,35.72656482268074,51.27563080214627,1372.0010227160528,6.915489126413377e-05,-2.2833804337096808e-05,0.0,0.0,0.0,0.0,342.2794565217391,70.0,0.0,255.0,0.0
25.50000000000022,35.72656828564579,51.275629663760526,1372.0010224292055,6.915489132097719e-05,-2.2833804337096808e-05,0.0,5.684341886080801e-13,0.0,0.0,342.270652173913,70.0,0.0,255.0,0.0
25.55000000000022,35.726571748611235,51.27562852537379,1372.0010221442208,6.915489132097719e-05,-2.2833804337096808e-05,0.0,-5.684341886080801e-13,0.0,0.0,342.2618478260869,70.0,0.0,255.0,0.0
25.60000000000022,35.7265752115771,51.27562738698608,1372.0010218601674,6.915489126413377e-05,-2.2833804337096808e-05,0.0,0.0,0.0,0.0,342.25304347826085,70.0,0.0,255.0,0.0
25.650000000000222,35.72657867454337,51.27562624859738,1372.001021576114,6.915489132097719e-05,-2.2833804337096808e-05,0.0,5.684341886080801e-13,-1.1368683772161603e-12,0.0,342.2442391304347,70.0,0.0,255.0,0.0
25.700000000000223,35.72658213751006,51.275625110207706,1372.0010212892666,6.915489132097719e-05,-2.2833804450783646e-05,0.0,0.0,0.0,0.0,342.23543478260865,70.0,0.0,255.0,0.0
25.750000000000224,35.72658560047716,51.275623971817026,1372.001021004282,6.915489132097719e-05,-2.2833804337096808e-05,0.0,0.0,1.1368683772161603e-12,0.0,342.2266304347826,70.0,0.0,255.0,0.0
25.800000000000225,35.72658906344467,51.27562283342538,1372.0010207192972,6.915489132097719e-05,-2.2833804337096808e-05,0.0,-1.1368683772161603e-12,0.0,0.0,342.2178260869565,70.0,0.0,255.0,0.0
25.850000000000225,35.7265925264126,51.27562169503275,1372.0010204343125,6.915489120729035e-05,-2.2833804337096808e-05,0.0,0.0,1.1368683772161603e-12,0.0,342.2090217391304,70.0,0.0,255.0,0.0
25.900000000000226,35.726595989380925,51.275620556639126,1372.0010201493278,6.915489132097719e-05,-2.283380422340997e-05,0.0,1.1368683772161603e-12,0.0,0.0,342.2002173913043,70.0,0.0,255.0,0.0
25.950000000000227,35.726599452349696,51.27561941824452,1372.001019864343,6.915489132097719e-05,-2.2833804337096808e-05,0.0,-5.684341886080801e-13,-2.2737367544323206e-12,0.0,342.19141304347824,70.0,0.0,255.0,0.0
26.000000000000227,35.72660291531886,51.275618279848935,1372.0010195774958,6.915489126413377e-05,-2.2833804450783646e-05,0.0,0.0,-1.1368683772161603e-12,0.0,342.18260869565216,70.0,0.0,255.0,0.0
26.050000000000228,35.72660637828843,51.27561714145235,1372.0010192943737,6.915489132097719e-05,-2.2833804450783646e-05,0.0,5.684341886080801e-13,1.1368683772161603e-12,0.0,342.17380434782604,70.0,0.0,255.0,0.0
26.10000000000023,35.72660984125842,51.2756160030548,1372.0010190084577,6.915489132097719e-05,-2.2833804337096808e-05,0.0,-5.684341886080801e-13,1.1368683772161603e-12,0.0,342.16499999999996,70.0,0.0,255.0,0.0
26.15000000000023,35.72661330422883,51.27561486465626,1372.0010187244043,6.915489126413377e-05,-2.2833804337096808e-05,0.0,0.0,0.0,0.0,342.1561956521739,70.0,0.0,255.0,0.0
26.20000000000023,35.726616767199644,51.27561372625673,1372.0010184394196,6.915489132097719e-05,-2.2833804337096808e-05,0.0,5.684341886080801e-13,1.1368683772161603e-12,0.0,342.14739130434776,70.0,0.0,255.0,0.0
26.25000000000023,35.72662023017086,51.2756125878562,1372.0010181544349,6.915489132097719e-05,-2.283380422340997e-05,0.0,0.0,0.0,0.0,342.1385869565217,70.0,0.0,255.0,0.0
26.30000000000023,35.72662369314251,51.27561144945472,1372.0010178703815,6.915489132097719e-05,-2.2833804337096808e-05,0.0,0.0,-2.2737367544323206e-12,0.0,342.1297826086956,70.0,0.0,255.0,0.0
26.350000000000232,35.72662715611455,51.27561031105223,1372.0010175844654,6.915489132097719e-05,-2.2833804450783646e-05,0.0,-5.684341886080801e-13,0.0,0.0,342.12097826086955,70.0,0.0,255.0,0.0
26.400000000000233,35.72663061908701,51.27560917264876,1372.0010172994807,6.915489126413377e-05,-2.2833804337096808e-05,0.0,0.0,1.1368683772161603e-12,0.0,342.1121739130434,70.0,0.0,255.0,0.0
26.450000000000234,35.726634082059896,51.275608034244314,1372.0010170154274,6.915489132097719e-05,-2.2833804337096808e-05,0.0,5.684341886080801e-13,-1.1368683772161603e-12,0.0,342.10336956521735,70.0,0.0,255.0,0.0
26.500000000000234,35.726637545033164,51.27560689583888,1372.0010167323053,6.915489132097719e-05,-2.2833804450783646e-05,0.0,-5.684341886080801e-13,0.0,0.0,342.0945652173913,70.0,0.0,255.0,0.0
26.550000000000235,35.72664100800688,51.27560575743245,1372.0010164463893,6.915489126413377e-05,-2.2833804337096808e-05,0.0,0.0,2.2737367544323206e-12,0.0,342.0857608695652,70.0,0.0,255.0,0.0
26.600000000000236,35.72664447098098,51.27560461902504,1372.0010161623359,6.915489132097719e-05,-2.283380422340997e-05,0.0,5.684341886080801e-13,0.0,0.0,342.0769565217391,70.0,0.0,255.0,0.0
26.650000000000237,35.726647933955505,51.27560348061665,1372.0010158782825,6.915489132097719e-05,-2.2833804337096808e-05,0.0,0.0,-1.1368683772161603e-12,0.0,342.068152173913,70.0,0.0,255.0,0.0
26.700000000000237,35.72665139693043,51.275602342207264,1372.0010155932978,6.915489132097719e-05,-2.2833804337096808e-05,0.0,0.0,0.0,0.0,342.05934782608693,70.0,0.0,255.0,0.0
26.750000000000238,35.72665485990578,51.2756012037969,1372.001015308313,6.915489132097719e-05,-2.2833804337096808e-05,0.0,-5.684341886080801e-13,-1.1368683772161603e-12,0.0,342.0505434782608,70.0,0.0,255.0,0.0
26.80000000000024,35.72665832288151,51.27560006538554,1372.0010150242597,6.915489126413377e-05,-2.2833804450783646e-05,0.0,0.0,0.0,0.0,342.04173913043473,70.0,0.0,255.0,0.0
26.85000000000024,35.726661785857694,51.2755989269732,1372.0010147402063,6.915489132097719e-05,-2.2833804337096808e-05,0.0,5.684341886080801e-13,1.1368683772161603e-12,0.0,342.03293478260866,70.0,0.0,255.0,0.0
26.90000000000024,35.72666524883426,51.275597788559885,1372.001014456153,6.915489132097719e-05,-2.2833804337096808e-05,0.0,-5.684341886080801e-13,0.0,0.0,342.0241304347826,70.0,0.0,255.0,0.0
26.95000000000024,35.726668711811236,51.27559665014558,1372.0010141730309,6.915489126413377e-05,-2.2833804337096808e-05,0.0,0.0,0.0,0.0,342.01532608695646,70.0,0.0,255.0,0.0
27.00000000000024,35.72667217478863,51.27559551173027,1372.0010138880461,6.915489132097719e-05,-2.2833804337096808e-05,0.0,5.684341886080801e-13,0.0,0.0,342.0065217391304,70.0,0.0,255.0,0.0
27.050000000000242,35.72667563776643,51.27559437331401,1372.0010136030614,6.915489132097719e-05,-2.2833804337096808e-05,0.0,0.0,0.0,0.0,341.9977173913043,70.0,0.0,255.0,0.0
27.100000000000243,35.72667910074465,51.27559323489673,1372.0010133208707,6.915489132097719e-05,-2.2833804337096808e-05,0.0,0.0,0.0,0.0,341.9889130434782,70.0,0.0,255.0,0.0
27.150000000000244,35.726682563723266,51.27559209647847,1372.0010130349547,6.915489132097719e-05,-2.2833804337096808e-05,0.0,-5.684341886080801e-13,0.0,0.0,341.9801086956521,70.0,0.0,255.0,0.0
27.200000000000244,35.726686026702296,51.27559095805923,1372.0010127509013,6.915489126413377e-05,-2.2833804337096808e-05,0.0,0.0,-1.1368683772161603e-12,0.0,341.97130434782605,70.0,0.0,255.0,0.0
27.250000000000245,35.726689489681746,51.27558981963901,1372.0010124677792,6.915489132097719e-05,-2.2833804450783646e-05,0.0,0.0,0.0,0.0,341.9625,70.0,0.0,255.0,0.0
27.300000000000246,35.72669295266159,51.27558868121779,1372.0010121837258,6.915489126413377e-05,-2.2833804337096808e-05,0.0,-5.684341886080801e-13,1.1368683772161603e-12,0.0,341.95369565217385,70.0,0.0,255.0,0.0
27.350000000000247,35.726696415641854,51.2755875427956,1372.0010118987411,6.915489126413377e-05,-2.2833804337096808e-05,0.0,5.684341886080801e-13,0.0,0.0,341.9448913043478,70.0,0.0,255.0,0.0
27.400000000000247,35.72669987862251,51.27558640437241,1372.001011615619,6.915489132097719e-05,-2.2833804337096808e-05,0.0,5.684341886080801e-13,1.1368683772161603e-12,0.0,341.9360869565217,70.0,0.0,255.0,0.0
27.450000000000248,35.72670334160359,51.27558526594823,1372.0010113306344,6.915489132097719e-05,-2.283380422340997e-05,0.0,-5.684341886080801e-13,0.0,0.0,341.92728260869563,70.0,0.0,255.0,0.0
27.50000000000025,35.726706804585085,51.27558412752308,1372.0010110484436,6.915489126413377e-05,-2.2833804337096808e-05,0.0,0.0,-2.2737367544323206e-12,0.0,341.9184782608695,70.0,0.0,255.0,0.0
27.55000000000025,35.72671026756697,51.27558298909693,1372.001010763459,6.915489132097719e-05,-2.2833804450783646e-05,0.0,5.684341886080801e-13,0.0,0.0,341.90967391304343,70.0,0.0,255.0,0.0
27.60000000000025,35.72671373054928,51.275581850669795,1372.0010104803368,6.915489132097719e-05,-2.2833804337096808e-05,0.0,0.0,1.1368683772161603e-12,0.0,341.90086956521736,70.0,0.0,255.0,0.0
27.65000000000025,35.726717193532,51.27558071224168,1372.0010101962835,6.915489132097719e-05,-2.2833804337096808e-05,0.0,0.0,-1.1368683772161603e-12,0.0,341.89206521739123,70.0,0.0,255.0,0.0
27.70000000000025,35.72672065651512,51.275579573812564,1372.00100991223,6.915489132097719e-05,-2.2833804450783646e-05,0.0,-5.684341886080801e-13,0.0,0.0,341.88326086956516,70.0,0.0,255.0,0.0
27.750000000000252,35.72672411949864,51.275578435382464,1372.0010096281767,6.915489126413377e-05,-2.2833804337096808e-05,0.0,0.0,2.2737367544323206e-12,0.0,341.8744565217391,70.0,0.0,255.0,0.0
27.800000000000253,35.72672758248259,51.27557729695138,1372.001009343192,6.915489132097719e-05,-2.283380422340997e-05,0.0,5.684341886080801e-13,0.0,0.0,341.865652173913,70.0,0.0,255.0,0.0
27.850000000000254,35.726731045466934,51.27557615851931,1372.0010090619326,6.915489132097719e-05,-2.2833804337096808e-05,0.0,-5.684341886080801e-13,-2.2737367544323206e-12,0.0,341.8568478260869,70.0,0.0,255.0,0.0
27.900000000000254,35.72673450845169,51.27557502008625,1372.0010087778792,6.915489126413377e-05,-2.2833804450783646e-05,0.0,0.0,0.0,0.0,341.8480434782608,70.0,0.0,255.0,0.0
27.950000000000255,35.72673797143684,51.27557388165219,1372.0010084938258,6.915489132097719e-05,-2.2833804337096808e-05,0.0,5.684341886080801e-13,1.1368683772161603e-12,0.0,341.83923913043475,70.0,0.0,255.0,0.0
28.000000000000256,35.726741434422415,51.275572743217175,1372.001008211635,6.915489132097719e-05,-2.2833804337096808e-05,0.0,0.0,-1.1368683772161603e-12,0.0,341.8304347826087,70.0,0.0,255.0,0.0
28.050000000000257,35.72674489740839,51.27557160478115,1372.0010079275817,6.915489132097719e-05,-2.2833804450783646e-05,0.0,0.0,0.0,0.0,341.82163043478255,70.0,0.0,255.0,0.0
28.100000000000257,35.72674836039478,51.27557046634414,1372.0010076435283,6.915489132097719e-05,-2.2833804337096808e-05,0.0,-5.684341886080801e-13,2.2737367544323206e-12,0.0,341.8128260869565,70.0,0.0,255.0,0.0
28.150000000000258,35.72675182338157,51.27556932790615,1372.0010073613375,6.915489126413377e-05,-2.283380422340997e-05,0.0,0.0,0.0,0.0,341.8040217391304,70.0,0.0,255.0,0.0
28.20000000000026,35.72675528636877,51.275568189467165,1372.0010070782155,6.915489132097719e-05,-2.2833804337096808e-05,0.0,5.684341886080801e-13,-1.1368683772161603e-12,0.0,341.7952173913043,70.0,0.0,255.0,0.0
28.25000000000026,35.72675874935638,51.27556705102719,1372.0010067950934,6.915489132097719e-05,-2.2833804337096808e-05,0.0,-5.684341886080801e-13,0.0,0.0,341.7864130434782,70.0,0.0,255.0,0.0
28.30000000000026,35.726762212344404,51.275565912586224,1372.0010065129027,6.915489126413377e-05,-2.2833804337096808e-05,0.0,0.0,-1.1368683772161603e-12,0.0,341.77760869565213,70.0,0.0,255.0,0.0
28.35000000000026,35.72676567533281,51.27556477414428,1372.0010062288493,6.915489132097719e-05,-2.2833804450783646e-05,0.0,5.684341886080801e-13,0.0,0.0,341.76880434782606,70.0,0.0,255.0,0.0
28.40000000000026,35.726769138321636,51.27556363570134,1372.0010059429333,6.915489132097719e-05,-2.2833804337096808e-05,0.0,0.0,1.1368683772161603e-12,0.0,341.75999999999993,70.0,0.0,255.0,0.0
28.450000000000262,35.72677260131086,51.27556249725741,1372.0010056626052,6.915489132097719e-05,-2.2833804337096808e-05,0.0,0.0,0.0,0.0,341.75119565217386,70.0,0.0,255.0,0.0
28.500000000000263,35.726776064300516,51.275561358812496,1372.0010053785518,6.915489132097719e-05,-2.2833804337096808e-05,0.0,-5.684341886080801e-13,0.0,0.0,341.7423913043478,70.0,0.0,255.0,0.0
28.550000000000264,35.72677952729055,51.27556022036659,1372.001005096361,6.915489126413377e-05,-2.2833804337096808e-05,0.0,0.0,0.0,0.0,341.7335869565217,70.0,0.0,255.0,0.0
28.600000000000264,35.72678299028101,51.27555908191971,1372.0010048123077,6.915489132097719e-05,-2.2833804337096808e-05,0.0,0.0,0.0,0.0,341.7247826086956,70.0,0.0,255.0,0.0
28.650000000000265,35.72678645327186,51.275557943471824,1372.0010045319796,6.915489126413377e-05,-2.2833804337096808e-05,0.0,-5.684341886080801e-13,0.0,0.0,341.7159782608695,70.0,0.0,255.0,0.0
28.700000000000266,35.72678991626313,51.27555680502296,1372.0010042469949,6.915489126413377e-05,-2.2833804337096808e-05,0.0,5.684341886080801e-13,0.0,0.0,341.70717391304345,70.0,0.0,255.0,0.0
28.750000000000266,35.7267933792548,51.275555666573105,1372.0010039657354,6.915489132097719e-05,-2.2833804337096808e-05,0.0,5.684341886080801e-13,-1.1368683772161603e-12,0.0,341.6983695652173,70.0,0.0,255.0,0.0
28.800000000000267,35.72679684224687,51.27555452812225,1372.001003681682,6.915489132097719e-05,-2.2833804450783646e-05,0.0,-5.684341886080801e-13,0.0,0.0,341.68956521739125,70.0,0.0,255.0,0.0
28.850000000000268,35.726800305239344,51.27555338967042,1372.0010033994913,6.915489126413377e-05,-2.2833804337096808e-05,0.0,0.0,1.1368683772161603e-12,0.0,341.6807608695652,70.0,0.0,255.0,0.0
28.90000000000027,35.72680376823225,51.275552251217604,1372.0010031145066,6.915489132097719e-05,-2.2833804337096808e-05,0.0,5.684341886080801e-13,0.0,0.0,341.6719565217391,70.0,0.0,255.0,0.0
28.95000000000027,35.72680723122554,51.275551112763786,1372.0010028313845,6.915489132097719e-05,-2.2833804337096808e-05,0.0,0.0,1.1368683772161603e-12,0.0,341.663152173913,70.0,0.0,255.0,0.0
29.00000000000027,35.72681069421923,51.27554997430899,1372.0010025501251,6.915489132097719e-05,-2.283380422340997e-05,0.0,0.0,0.0,0.0,341.6543478260869,70.0,0.0,255.0,0.0
29.05000000000027,35.72681415721334,51.27554883585319,1372.0010022688657,6.915489132097719e-05,-2.2833804337096808e-05,0.0,-5.684341886080801e-13,-2.2737367544323206e-12,0.0,341.64554347826083,70.0,0.0,255.0,0.0
29.10000000000027,35.72681762020784,51.27554769739642,1372.0010019848123,6.915489126413377e-05,-2.2833804450783646e-05,0.0,0.0,0.0,0.0,341.63673913043476,70.0,0.0,255.0,0.0
29.150000000000272,35.72682108320276,51.275546558938636,1372.0010017026216,6.915489132097719e-05,-2.2833804337096808e-05,0.0,5.684341886080801e-13,1.1368683772161603e-12,0.0,341.62793478260863,70.0,0.0,255.0,0.0
29.200000000000273,35.72682454619807,51.27554542047989,1372.0010014213622,6.915489132097719e-05,-2.2833804337096808e-05,0.0,-5.684341886080801e-13,-1.1368683772161603e-12,0.0,341.61913043478256,70.0,0.0,255.0,0.0
29.250000000000274,35.726828009193795,51.275544282020135,1372.0010011373088,6.915489126413377e-05,-2.2833804450783646e-05,0.0,0.0,0.0,0.0,341.6103260869565,70.0,0.0,255.0,0.0
29.300000000000274,35.72683147218992,51.27554314355939,1372.001000855118,6.915489132097719e-05,-2.2833804337096808e-05,0.0,5.684341886080801e-13,2.2737367544323206e-12,0.0,341.60152173913036,70.0,0.0,255.0,0.0
29.350000000000275,35.726834935186446,51.27554200509766,1372.0010005729273,6.915489132097719e-05,-2.283380422340997e-05,0.0,0.0,0.0,0.0,341.5927173913043,70.0,0.0,255.0,0.0
29.400000000000276,35.72683839818339,51.27554086663495,1372.0010002898052,6.915489132097719e-05,-2.2833804337096808e-05,0.0,0.0,-1.1368683772161603e-12,0.0,341.5839130434782,70.0,0.0,255.0,0.0
29.450000000000276,35.72684186118074,51.275539728171246,1372.0010000076145,6.915489132097719e-05,-2.2833804337096808e-05,0.0,-5.684341886080801e-13,0.0,0.0,341.57510869565215,70.0,0.0,255.0,0.0
29.500000000000277,35.726845324178456,51.27553858970654,1372.000999726355,6.915489126413377e-05,-2.2833804337096808e-05,0.0,0.0,-1.1368683772161603e-12,0.0,341.566304347826,70.0,0.0,255.0,0.0
29.550000000000278,35.726848787176614,51.27553745124086,1372.0009994441643,6.915489132097719e-05,-2.2833804450783646e-05,0.0,5.684341886080801e-13,0.0,0.0,341.55749999999995,70.0,0.0,255.0,0.0
29.60000000000028,35.726852250175156,51.27553631277417,1372.0009991619736,6.915489132097719e-05,-2.2833804337096808e-05,0.0,-5.684341886080801e-13,1.1368683772161603e-12,0.0,341.5486956521739,70.0,0.0,255.0,0.0
29.65000000000028,35.726855713174125,51.27553517430651,1372.0009988788515,6.915489126413377e-05,-2.2833804337096808e-05,0.0,0.0,0.0,0.0,341.5398913043478,70.0,0.0,255.0,0.0
29.70000000000028,35.72685917617347,51.27553403583785,1372.0009985985234,6.915489132097719e-05,-2.2833804337096808e-05,0.0,5.684341886080801e-13,0.0,0.0,341.5310869565217,70.0,0.0,255.0,0.0
29.75000000000028,35.72686263917324,51.275532897368194,1372.0009983135387,6.915489132097719e-05,-2.2833804337096808e-05,0.0,0.0,0.0,0.0,341.5222826086956,70.0,0.0,255.0,0.0
29.80000000000028,35.7268661021734,51.27553175889756,1372.000998034142,6.915489132097719e-05,-2.2833804337096808e-05,0.0,0.0,0.0,0.0,341.51347826086953,70.0,0.0,255.0,0.0
29.850000000000282,35.72686956517397,51.27553062042593,1372.0009977500886,6.915489132097719e-05,-2.2833804337096808e-05,0.0,-5.684341886080801e-13,-1.1368683772161603e-12,0.0,341.5046739130434,70.0,0.0,255.0,0.0
29.900000000000283,35.726873028174936,51.27552948195331,1372.0009974688292,6.915489126413377e-05,-2.2833804450783646e-05,0.0,0.0,0.0,0.0,341.49586956521733,70.0,0.0,255.0,0.0
29.950000000000284,35.726876491176306,51.27552834347969,1372.0009971866384,6.915489132097719e-05,-2.2833804337096808e-05,0.0,5.684341886080801e-13,1.1368683772161603e-12,0.0,341.48706521739126,70.0,0.0,255.0,0.0
30.000000000000284,35.72687995417809,51.275527205005105,1372.0009969044477,6.915489132097719e-05,-2.2833804337096808e-05,0.0,-5.684341886080801e-13,0.0,0.0,341.4782608695652,70.0,0.0,255.0,0.0
30.050000000000285,35.726883417180275,51.2755260665295,1372.0009966231883,6.915489126413377e-05,-2.2833804337096808e-05,0.0,-5.684341886080801e-13,0.0,0.0,341.46945652173906,70.0,0.0,255.0,0.0
30.100000000000286,35.72688688018284,51.27552492805292,1372.0009963428602,6.915489126413377e-05,-2.2833804337096808e-05,0.0,5.684341886080801e-13,0.0,0.0,341.460652173913,70.0,0.0,255.0,0.0
30.150000000000286,35.72689034318583,51.27552378957535,1372.0009960588068,6.915489132097719e-05,-2.2833804337096808e-05,0.0,0.0,0.0,0.0,341.4518478260869,70.0,0.0,255.0,0.0
30.200000000000287,35.72689380618921,51.275522651096786,1372.0009957784787,6.915489126413377e-05,-2.2833804337096808e-05,0.0,0.0,0.0,0.0,341.44304347826085,70.0,0.0,255.0,0.0
30.250000000000288,35.726897269193,51.275521512617225,1372.000995496288,6.915489132097719e-05,-2.2833804337096808e-05,0.0,5.684341886080801e-13,0.0,0.0,341.4342391304347,70.0,0.0,255.0,0.0
30.30000000000029,35.72690073219718,51.27552037413669,1372.0009952159598,6.915489132097719e-05,-2.2833804337096808e-05,0.0,0.0,-1.1368683772161603e-12,0.0,341.42543478260865,70.0,0.0,255.0,0.0
30.35000000000029,35.726904195201776,51.27551923565514,1372.0009949328378,6.915489132097719e-05,-2.2833804450783646e-05,0.0,0.0,0.0,0.0,341.4166304347826,70.0,0.0,255.0,0.0
30.40000000000029,35.726907658206784,51.275518097172615,1372.0009946515784,6.915489132097719e-05,-2.2833804337096808e-05,0.0,-5.684341886080801e-13,1.1368683772161603e-12,0.0,341.40782608695645,70.0,0.0,255.0,0.0
30.45000000000029,35.726911121212176,51.27551695868909,1372.000994370319,6.915489126413377e-05,-2.2833804337096808e-05,0.0,0.0,0.0,0.0,341.3990217391304,70.0,0.0,255.0,0.0
30.50000000000029,35.726914584217965,51.27551582020459,1372.0009940881282,6.915489132097719e-05,-2.2833804337096808e-05,0.0,5.684341886080801e-13,1.1368683772161603e-12,0.0,341.3902173913043,70.0,0.0,255.0,0.0
30.550000000000292,35.72691804722415,51.27551468171907,1372.0009938068688,6.915489132097719e-05,-2.283380422340997e-05,0.0,-5.684341886080801e-13,0.0,0.0,341.38141304347823,70.0,0.0,255.0,0.0
30.600000000000293,35.72692151023077,51.27551354323259,1372.0009935256094,6.915489126413377e-05,-2.2833804337096808e-05,0.0,0.0,-2.2737367544323206e-12,0.0,341.3726086956521,70.0,0.0,255.0,0.0
30.650000000000293,35.72692497323776,51.27551240474509,1372.0009932434186,6.915489132097719e-05,-2.2833804450783646e-05,0.0,5.684341886080801e-13,0.0,0.0,341.36380434782603,70.0,0.0,255.0,0.0
30.700000000000294,35.72692843624516,51.27551126625662,1372.0009929630905,6.915489132097719e-05,-2.2833804337096808e-05,0.0,0.0,1.1368683772161603e-12,0.0,341.35499999999996,70.0,0.0,255.0,0.0
30.750000000000295,35.72693189925296,51.27551012776715,1372.0009926818311,6.915489132097719e-05,-2.2833804337096808e-05,0.0,0.0,-1.1368683772161603e-12,0.0,341.3461956521739,70.0,0.0,255.0,0.0
30.800000000000296,35.72693536226116,51.27550898927669,1372.000992401503,6.915489132097719e-05,-2.2833804450783646e-05,0.0,-5.684341886080801e-13,0.0,0.0,341.33739130434776,70.0,0.0,255.0,0.0
30.850000000000296,35.72693882526977,51.275507850785225,1372.0009921174496,6.915489126413377e-05,-2.2833804337096808e-05,0.0,0.0,2.2737367544323206e-12,0.0,341.3285869565217,70.0,0.0,255.0,0.0
30.900000000000297,35.72694228827877,51.27550671229279,1372.0009918361902,6.915489132097719e-05,-2.283380422340997e-05,0.0,5.684341886080801e-13,0.0,0.0,341.3197826086956,70.0,0.0,255.0,0.0
30.950000000000298,35.726945751288184,51.27550557379934,1372.0009915567935,6.915489132097719e-05,-2.2833804337096808e-05,0.0,-5.684341886080801e-13,-1.1368683772161603e-12,0.0,341.3109782608695,70.0,0.0,255.0,0.0
31.0000000000003,35.72694921429799,51.27550443530491,1372.0009912764654,6.915489126413377e-05,-2.2833804337096808e-05,0.0,0.0,0.0,0.0,341.3021739130434,70.0,0.0,255.0,0.0
31.0500000000003,35.72695267730818,51.2755032968095,1372.0009909942746,6.915489132097719e-05,-2.2833804337096808e-05,0.0,5.684341886080801e-13,-1.1368683772161603e-12,0.0,341.29336956521735,70.0,0.0,255.0,0.0
31.1000000000003,35.72695614031879,51.275502158313074,1372.0009907120839,6.915489132097719e-05,-2.2833804450783646e-05,0.0,0.0,0.0,0.0,341.2845652173913,70.0,0.0,255.0,0.0
31.1500000000003,35.72695960332979,51.275501019815664,1372.0009904336184,6.915489132097719e-05,-2.2833804337096808e-05,0.0,0.0,1.1368683772161603e-12,0.0,341.27576086956515,70.0,0.0,255.0,0.0
31.2000000000003,35.7269630663412,51.275499881317266,1372.0009901514277,6.915489132097719e-05,-2.2833804337096808e-05,0.0,-5.684341886080801e-13,0.0,0.0,341.2669565217391,70.0,0.0,255.0,0.0
31.250000000000302,35.72696652935301,51.27549874281788,1372.0009898701683,6.915489126413377e-05,-2.2833804337096808e-05,0.0,0.0,0.0,0.0,341.258152173913,70.0,0.0,255.0,0.0
31.300000000000303,35.726969992365206,51.275497604317486,1372.0009895907715,6.915489132097719e-05,-2.2833804337096808e-05,0.0,5.684341886080801e-13,0.0,0.0,341.24934782608693,70.0,0.0,255.0,0.0
31.350000000000303,35.72697345537781,51.27549646581611,1372.0009893085808,6.915489132097719e-05,-2.2833804337096808e-05,0.0,-5.684341886080801e-13,0.0,0.0,341.2405434782608,70.0,0.0,255.0,0.0
31.400000000000304,35.72697691839081,51.27549532731374,1372.0009890273213,6.915489126413377e-05,-2.2833804337096808e-05,0.0,0.0,0.0,0.0,341.23173913043473,70.0,0.0,255.0,0.0
31.450000000000305,35.7269803814042,51.27549418881038,1372.0009887451306,6.915489132097719e-05,-2.2833804337096808e-05,0.0,5.684341886080801e-13,0.0,0.0,341.22293478260866,70.0,0.0,255.0,0.0
31.500000000000306,35.726983844418015,51.27549305030602,1372.0009884675965,6.915489132097719e-05,-2.2833804337096808e-05,0.0,-1.1368683772161603e-12,-1.1368683772161603e-12,0.0,341.21413043478253,70.0,0.0,255.0,0.0
31.550000000000306,35.72698730743222,51.27549191180067,1372.0009881854057,6.915489120729035e-05,-2.2833804450783646e-05,0.0,0.0,0.0,0.0,341.20532608695646,70.0,0.0,255.0,0.0
31.600000000000307,35.72699077044681,51.27549077329432,1372.0009879041463,6.915489132097719e-05,-2.2833804337096808e-05,0.0,1.1368683772161603e-12,1.1368683772161603e-12,0.0,341.1965217391304,70.0,0.0,255.0,0.0
31.650000000000308,35.72699423346181,51.275489634786986,1372.0009876247495,6.915489132097719e-05,-2.2833804337096808e-05,0.0,0.0,0.0,0.0,341.1877173913043,70.0,0.0,255.0,0.0
31.70000000000031,35.72699769647719,51.275488496278655,1372.0009873434901,6.915489132097719e-05,-2.2833804337096808e-05,0.0,0.0,0.0,0.0,341.1789130434782,70.0,0.0,255.0,0.0
31.75000000000031,35.727001159492985,51.275487357769336,1372.000987063162,6.915489132097719e-05,-2.2833804337096808e-05,0.0,-5.684341886080801e-13,0.0,0.0,341.1701086956521,70.0,0.0,255.0,0.0
31.80000000000031,35.727004622509185,51.27548621925901,1372.0009867819026,6.915489126413377e-05,-2.2833804337096808e-05,0.0,0.0,0.0,0.0,341.16130434782605,70.0,0.0,255.0,0.0
31.85000000000031,35.727008085525775,51.27548508074771,1372.0009865025058,6.915489132097719e-05,-2.2833804337096808e-05,0.0,5.684341886080801e-13,-1.1368683772161603e-12,0.0,341.1525,70.0,0.0,255.0,0.0
31.90000000000031,35.727011548542755,51.2754839422354,1372.0009862221777,6.915489132097719e-05,-2.2833804450783646e-05,0.0,-5.684341886080801e-13,0.0,0.0,341.14369565217385,70.0,0.0,255.0,0.0
31.950000000000312,35.72701501156015,51.27548280372211,1372.0009859409183,6.915489126413377e-05,-2.2833804337096808e-05,0.0,0.0,1.1368683772161603e-12,1.8189894035458306e-11,341.1348913043478,70.0,0.0,255.0,0.0
32.00000000000031,35.72701847457794,51.27548166520781,1372.0009856615216,6.915489132097719e-05,-2.2833804337096808e-05,1.8189894035458565e-12,0.0,0.0,1.818989403545766e-11,341.1260869565217,70.0,0.0,255.0,0.0
32.05000000000031,35.727021937596106,51.27548052669253,1372.0009853793308,6.915489126413377e-05,-2.2833804337096808e-05,1.8189894035458565e-12,0.0,0.0,-1.818989403545572e-11,341.1172826086956,70.0,0.0,255.0,0.0
32.100000000000314,35.727025400614686,51.27547938817625,1372.0009851008654,6.915489132097719e-05,-2.2833804337096808e-05,0.0,5.684341886080801e-13,0.0,-3.637978807091403e-11,341.1084782608695,70.0,0.0,255.0,0.0
32.15000000000032,35.72702886363366,51.27547824965899,1372.000984819606,6.915489132097719e-05,-2.2833804337096808e-05,-1.8189894035458565e-12,0.0,0.0,5.169878828456276e-24,341.09967391304343,70.0,0.0,255.0,0.0
32.200000000000315,35.72703232665304,51.27547711114071,1372.0009845411405,6.915489132097719e-05,-2.2833804337096808e-05,0.0,0.0,0.0,3.63797880709192e-11,341.09086956521736,70.0,0.0,255.0,0.0
32.25000000000031,35.72703578967281,51.27547597262146,1372.0009842608124,6.915489132097719e-05,-2.2833804337096808e-05,1.8189894035458565e-12,0.0,0.0,5.169878828456276e-24,341.08206521739123,70.0,0.0,255.0,0.0
32.30000000000032,35.72703925269297,51.27547483410121,1372.0009839804843,6.915489132097719e-05,-2.2833804337096808e-05,0.0,0.0,-1.1368683772161603e-12,-3.637978807091403e-11,341.07326086956516,70.0,0.0,255.0,0.0
32.35000000000032,35.72704271571354,51.27547369557995,1372.000983699225,6.915489132097719e-05,-2.2833804450783646e-05,-1.8189894035458565e-12,0.0,0.0,5.169878828456276e-24,341.0644565217391,70.0,0.0,255.0,0.0
32.40000000000032,35.72704617873449,51.275472557057704,1372.0009834198281,6.915489132097719e-05,-2.2833804337096808e-05,0.0,-5.684341886080801e-13,2.2737367544323206e-12,3.63797880709192e-11,341.055652173913,70.0,0.0,255.0,0.0
32.450000000000315,35.72704964175585,51.27547141853448,1372.0009831413627,6.915489126413377e-05,-2.283380422340997e-05,1.8189894035458565e-12,0.0,-1.1368683772161603e-12,5.169878828456276e-24,341.0468478260869,70.0,0.0,255.0,0.0
32.50000000000032,35.7270531047776,51.275470280010246,1372.0009828601032,6.915489132097719e-05,-2.2833804450783646e-05,0.0,5.684341886080801e-13,-1.1368683772161603e-12,-3.637978807091403e-11,341.0380434782608,70.0,0.0,255.0,0.0
32.550000000000324,35.727056567799764,51.27546914148502,1372.0009825816378,6.915489132097719e-05,-2.2833804337096808e-05,-1.8189894035458565e-12,0.0,1.1368683772161603e-12,5.169878828456276e-24,341.02923913043475,70.0,0.0,255.0,0.0
32.60000000000032,35.72706003082231,51.2754680029588,1372.0009823013097,6.915489132097719e-05,-2.2833804337096808e-05,0.0,0.0,-1.1368683772161603e-12,3.63797880709192e-11,341.0204347826086,70.0,0.0,255.0,0.0
32.65000000000032,35.72706349384525,51.27546686443158,1372.000982021913,6.915489132097719e-05,-2.2833804450783646e-05,1.8189894035458565e-12,0.0,1.1368683772161603e-12,5.169878828456276e-24,341.01163043478255,70.0,0.0,255.0,0.0
32.70000000000032,35.72706695686858,51.27546572590336,1372.0009817406535,6.915489132097719e-05,-2.283380422340997e-05,0.0,0.0,1.1368683772161603e-12,-3.637978807091403e-11,341.0028260869565,70.0,0.0,255.0,0.0
32.75000000000033,35.72707041989232,51.27546458737417,1372.0009814603254,6.915489132097719e-05,-2.2833804337096808e-05,-1.8189894035458565e-12,0.0,-2.2737367544323206e-12,5.169878828456276e-24,340.9940217391304,70.0,0.0,255.0,0.0
32.800000000000324,35.72707388291645,51.275463448843965,1372.0009811809286,6.915489132097719e-05,-2.2833804450783646e-05,0.0,-5.684341886080801e-13,0.0,3.63797880709192e-11,340.9852173913043,70.0,0.0,255.0,0.0
32.85000000000032,35.72707734594098,51.27546231031276,1372.0009809015319,6.915489126413377e-05,-2.2833804337096808e-05,1.8189894035458565e-12,0.0,1.1368683772161603e-12,5.169878828456276e-24,340.9764130434782,70.0,0.0,255.0,0.0
32.900000000000325,35.727080808965894,51.27546117178058,1372.000980622135,6.915489132097719e-05,-2.2833804337096808e-05,0.0,5.684341886080801e-13,0.0,-3.637978807091403e-11,340.96760869565213,70.0,0.0,255.0,0.0
32.95000000000033,35.72708427199123,51.27546003324739,1372.000980341807,6.915489132097719e-05,-2.2833804337096808e-05,-1.8189894035458565e-12,-5.684341886080801e-13,0.0,5.169878828456276e-24,340.958804347826,70.0,0.0,255.0,0.0
33.00000000000033,35.72708773501693,51.27545889471321,1372.0009800633416,6.915489126413377e-05,-2.2833804337096808e-05,0.0,0.0,0.0,3.63797880709192e-11,340.94999999999993,70.0,0.0,255.0,0.0
33.050000000000324,35.72709119804302,51.27545775617803,1372.0009797839448,6.915489132097719e-05,-2.2833804337096808e-05,1.8189894035458565e-12,0.0,0.0,5.169878828456276e-24,340.94119565217386,70.0,0.0,255.0,0.0
33.10000000000033,35.727094661069536,51.275456617641865,1372.0009795036167,6.915489126413377e-05,-2.2833804337096808e-05,0.0,0.0,0.0,-3.637978807091403e-11,340.9323913043478,70.0,0.0,255.0,0.0
33.15000000000033,35.72709812409643,51.27545547910469,1372.00097922422,6.915489132097719e-05,-2.2833804337096808e-05,-1.8189894035458565e-12,0.0,0.0,5.169878828456276e-24,340.92358695652166,70.0,0.0,255.0,0.0
33.20000000000033,35.727101587123734,51.27545434056653,1372.0009789438918,6.915489126413377e-05,-2.2833804337096808e-05,0.0,-5.684341886080801e-13,0.0,3.63797880709192e-11,340.9147826086956,70.0,0.0,255.0,0.0
33.25000000000033,35.727105050151415,51.27545320202737,1372.0009786663577,6.915489126413377e-05,-2.2833804337096808e-05,1.8189894035458565e-12,5.684341886080801e-13,0.0,5.169878828456276e-24,340.9059782608695,70.0,0.0,255.0,0.0
33.30000000000033,35.727108513179495,51.275452063487215,1372.0009783878922,6.915489132097719e-05,-2.2833804337096808e-05,0.0,5.684341886080801e-13,0.0,-3.637978807091403e-11,340.89717391304345,70.0,0.0,255.0,0.0
33.350000000000335,35.72711197620797,51.27545092494607,1372.0009781075642,6.915489132097719e-05,-2.2833804337096808e-05,-1.8189894035458565e-12,0.0,0.0,5.169878828456276e-24,340.8883695652173,70.0,0.0,255.0,0.0
33.40000000000033,35.72711543923683,51.27544978640394,1372.0009778281674,6.915489132097719e-05,-2.2833804337096808e-05,0.0,0.0,-1.1368683772161603e-12,3.63797880709192e-11,340.87956521739125,70.0,0.0,255.0,0.0
33.45000000000033,35.72711890226609,51.27544864786078,1372.0009775487706,6.915489132097719e-05,-2.2833804450783646e-05,1.8189894035458565e-12,-5.684341886080801e-13,0.0,5.169878828456276e-24,340.8707608695652,70.0,0.0,255.0,0.0
33.500000000000334,35.72712236529577,51.27544750931665,1372.0009772703052,6.915489126413377e-05,-2.2833804337096808e-05,0.0,0.0,1.1368683772161603e-12,-3.637978807091403e-11,340.8619565217391,70.0,0.0,255.0,0.0
33.55000000000034,35.72712582832581,51.27544637077151,1372.0009769918397,6.915489132097719e-05,-2.2833804337096808e-05,-1.8189894035458565e-12,0.0,-1.1368683772161603e-12,5.169878828456276e-24,340.853152173913,70.0,0.0,255.0,0.0
33.600000000000335,35.72712929135626,51.27544523222539,1372.0009767115116,6.915489126413377e-05,-2.2833804450783646e-05,0.0,-5.684341886080801e-13,1.1368683772161603e-12,3.63797880709192e-11,340.8443478260869,70.0,0.0,255.0,0.0
33.65000000000033,35.72713275438709,51.27544409367826,1372.0009764330462,6.915489126413377e-05,-2.283380422340997e-05,1.8189894035458565e-12,5.684341886080801e-13,1.1368683772161603e-12,5.169878828456276e-24,340.83554347826083,70.0,0.0,255.0,0.0
33.70000000000034,35.727136217418334,51.275442955130146,1372.0009761536494,6.915489132097719e-05,-2.2833804337096808e-05,0.0,5.684341886080801e-13,-2.2737367544323206e-12,-3.637978807091403e-11,340.8267391304347,70.0,0.0,255.0,0.0
33.75000000000034,35.727139680449966,51.27544181658103,1372.000975875184,6.915489132097719e-05,-2.2833804450783646e-05,-1.8189894035458565e-12,0.0,0.0,5.169878828456276e-24,340.81793478260863,70.0,0.0,255.0,0.0
33.80000000000034,35.727143143481975,51.275440678030904,1372.0009755967185,6.915489132097719e-05,-2.2833804337096808e-05,0.0,0.0,1.1368683772161603e-12,3.63797880709192e-11,340.80913043478256,70.0,0.0,255.0,0.0
33.850000000000335,35.72714660651439,51.275439539479805,1372.0009753163904,6.915489132097719e-05,-2.2833804337096808e-05,1.8189894035458565e-12,-5.684341886080801e-13,0.0,5.169878828456276e-24,340.8003260869565,70.0,0.0,255.0,0.0
33.90000000000034,35.7271500695472,51.2754384009277,1372.0009750388563,6.915489126413377e-05,-2.2833804337096808e-05,0.0,0.0,0.0,-3.637978807091403e-11,340.79152173913036,70.0,0.0,255.0,0.0
33.950000000000344,35.72715353258039,51.275437262374595,1372.0009747594595,6.915489132097719e-05,-2.2833804337096808e-05,-1.8189894035458565e-12,0.0,0.0,5.169878828456276e-24,340.7827173913043,70.0,0.0,255.0,0.0
34.00000000000034,35.72715699561399,51.27543612382049,1372.0009744800627,6.915489126413377e-05,-2.2833804337096808e-05,0.0,-5.684341886080801e-13,0.0,3.63797880709192e-11,340.7739130434782,70.0,0.0,255.0,0.0
34.05000000000034,35.727160458647965,51.27543498526539,1372.0009742015973,6.915489126413377e-05,-2.2833804337096808e-05,1.8189894035458565e-12,5.684341886080801e-13,0.0,5.169878828456276e-24,340.76510869565215,70.0,0.0,255.0,0.0
34.10000000000034,35.72716392168235,51.2754338467093,1372.0009739249945,6.915489132097719e-05,-2.2833804337096808e-05,0.0,5.684341886080801e-13,0.0,-3.637978807091403e-11,340.756304347826,70.0,0.0,255.0,0.0
34.15000000000035,35.7271673847171,51.27543270815221,1372.0009736446664,6.915489132097719e-05,-2.2833804337096808e-05,-1.8189894035458565e-12,0.0,0.0,5.169878828456276e-24,340.74749999999995,70.0,0.0,255.0,0.0
34.200000000000344,35.72717084775228,51.27543156959412,1372.000973366201,6.915489132097719e-05,-2.2833804337096808e-05,0.0,0.0,0.0,3.63797880709192e-11,340.7386956521739,70.0,0.0,255.0,0.0
34.25000000000034,35.727174310787824,51.27543043103504,1372.0009730868042,6.915489132097719e-05,-2.2833804337096808e-05,1.8189894035458565e-12,-5.684341886080801e-13,0.0,5.169878828456276e-24,340.72989130434775,70.0,0.0,255.0,0.0
34.300000000000345,35.727177773823776,51.27542929247495,1372.00097280927,6.915489126413377e-05,-2.2833804337096808e-05,0.0,0.0,-1.1368683772161603e-12,-3.637978807091403e-11,340.7210869565217,70.0,0.0,255.0,0.0
34.35000000000035,35.727181236860105,51.27542815391388,1372.0009725308046,6.915489132097719e-05,-2.2833804450783646e-05,-1.8189894035458565e-12,0.0,0.0,5.169878828456276e-24,340.7122826086956,70.0,0.0,255.0,0.0
34.40000000000035,35.72718469989683,51.275427015351795,1372.0009722532704,6.915489126413377e-05,-2.2833804337096808e-05,0.0,-1.1368683772161603e-12,2.2737367544323206e-12,3.63797880709192e-11,340.70347826086953,70.0,0.0,255.0,0.0
34.450000000000344,35.72718816293396,51.275425876788724,1372.0009719729424,6.915489120729035e-05,-2.283380422340997e-05,1.8189894035458565e-12,5.684341886080801e-13,-1.1368683772161603e-12,5.169878828456276e-24,340.6946739130434,70.0,0.0,255.0,0.0
34.50000000000035,35.727191625971464,51.27542473822465,1372.0009716954082,6.915489132097719e-05,-2.2833804450783646e-05,0.0,1.1368683772161603e-12,-1.1368683772161603e-12,-3.637978807091403e-11,340.68586956521733,70.0,0.0,255.0,0.0
34.55000000000035,35.72719508900937,51.27542359965959,1372.0009714160115,6.915489132097719e-05,-2.2833804337096808e-05,-1.8189894035458565e-12,0.0,2.2737367544323206e-12,5.169878828456276e-24,340.67706521739126,70.0,0.0,255.0,0.0
34.60000000000035,35.72719855204765,51.27542246109352,1372.00097114034,6.915489132097719e-05,-2.283380422340997e-05,0.0,-5.684341886080801e-13,-1.1368683772161603e-12,3.63797880709192e-11,340.66826086956513,70.0,0.0,255.0,0.0
34.65000000000035,35.727202015086355,51.275421322526455,1372.0009708609432,6.915489126413377e-05,-2.2833804450783646e-05,1.8189894035458565e-12,-5.684341886080801e-13,-1.1368683772161603e-12,5.169878828456276e-24,340.65945652173906,70.0,0.0,255.0,0.0
34.70000000000035,35.727205478125434,51.27542018395838,1372.0009705824777,6.915489126413377e-05,-2.2833804337096808e-05,0.0,5.684341886080801e-13,1.1368683772161603e-12,-3.637978807091403e-11,340.650652173913,70.0,0.0,255.0,0.0
34.750000000000355,35.727208941164896,51.275419045389334,1372.0009703049436,6.915489132097719e-05,-2.2833804337096808e-05,-1.8189894035458565e-12,0.0,-1.1368683772161603e-12,5.169878828456276e-24,340.6418478260869,70.0,0.0,255.0,0.0
34.80000000000035,35.72721240420475,51.27541790681927,1372.0009700255468,6.915489126413377e-05,-2.2833804450783646e-05,0.0,0.0,1.1368683772161603e-12,3.63797880709192e-11,340.6330434782608,70.0,0.0,255.0,0.0
34.85000000000035,35.72721586724501,51.27541676824822,1372.000969748944,6.915489132097719e-05,-2.283380422340997e-05,1.8189894035458565e-12,5.684341886080801e-13,1.1368683772161603e-12,5.169878828456276e-24,340.6242391304347,70.0,0.0,255.0,0.0
34.900000000000354,35.72721933028564,51.275415629676175,1372.00096947141,6.915489132097719e-05,-2.2833804337096808e-05,0.0,0.0,-2.2737367544323206e-12,-3.637978807091403e-11,340.61543478260865,70.0,0.0,255.0,0.0
34.95000000000036,35.727222793326675,51.27541449110311,1372.0009691929445,6.915489132097719e-05,-2.2833804450783646e-05,-1.8189894035458565e-12,0.0,0.0,5.169878828456276e-24,340.6066304347826,70.0,0.0,255.0,0.0
35.000000000000355,35.727226256368084,51.27541335252907,1372.0009689154103,6.915489132097719e-05,-2.2833804337096808e-05,0.0,-5.684341886080801e-13,1.1368683772161603e-12,3.63797880709192e-11,340.59782608695645,70.0,0.0,255.0,0.0
35.05000000000035,35.727229719409905,51.27541221395402,1372.000968636945,6.915489126413377e-05,-2.2833804337096808e-05,1.8189894035458565e-12,-5.684341886080801e-13,0.0,5.169878828456276e-24,340.5890217391304,70.0,0.0,255.0,0.0
35.10000000000036,35.72723318245211,51.27541107537798,1372.0009683594108,6.915489126413377e-05,-2.2833804337096808e-05,0.0,5.684341886080801e-13,0.0,-3.637978807091403e-11,340.5802173913043,70.0,0.0,255.0,0.0
35.15000000000036,35.727236645494685,51.27540993680093,1372.0009680809453,6.915489132097719e-05,-2.2833804337096808e-05,-1.8189894035458565e-12,0.0,0.0,5.169878828456276e-24,340.5714130434782,70.0,0.0,255.0,0.0
35.20000000000036,35.72724010853768,51.27540879822289,1372.0009678034112,6.915489126413377e-05,-2.2833804337096808e-05,0.0,0.0,0.0,3.63797880709192e-11,340.5626086956521,70.0,0.0,255.0,0.0
35.250000000000355,35.72724357158104,51.27540765964385,1372.0009675249457,6.915489132097719e-05,-2.2833804337096808e-05,1.8189894035458565e-12,5.684341886080801e-13,0.0,5.169878828456276e-24,340.55380434782603,70.0,0.0,255.0,0.0
35.30000000000036,35.7272470346248,51.27540652106381,1372.0009672474116,6.915489132097719e-05,-2.2833804337096808e-05,0.0,0.0,0.0,-3.637978807091403e-11,340.54499999999996,70.0,0.0,255.0,0.0
35.350000000000364,35.72725049766897,51.27540538248276,1372.0009669698775,6.915489132097719e-05,-2.2833804337096808e-05,-1.8189894035458565e-12,0.0,0.0,5.169878828456276e-24,340.53619565217383,70.0,0.0,255.0,0.0
35.40000000000036,35.7272539607135,51.275404243900724,1372.0009666923434,6.915489132097719e-05,-2.2833804337096808e-05,0.0,-5.684341886080801e-13,-1.1368683772161603e-12,3.63797880709192e-11,340.52739130434776,70.0,0.0,255.0,0.0
35.45000000000036,35.727257423758424,51.275403105317686,1372.0009664157405,6.915489126413377e-05,-2.2833804450783646e-05,1.8189894035458565e-12,-5.684341886080801e-13,0.0,5.169878828456276e-24,340.5185869565217,70.0,0.0,255.0,0.0
35.50000000000036,35.72726088680374,51.275401966733654,1372.0009661363438,6.915489126413377e-05,-2.2833804337096808e-05,0.0,5.684341886080801e-13,1.1368683772161603e-12,-3.637978807091403e-11,340.5097826086956,70.0,0.0,255.0,0.0
35.55000000000037,35.727264349849435,51.27540082814862,1372.0009658606723,6.915489132097719e-05,-2.2833804337096808e-05,-1.8189894035458565e-12,0.0,-1.1368683772161603e-12,5.169878828456276e-24,340.5009782608695,70.0,0.0,255.0,0.0
35.600000000000364,35.72726781289555,51.27539968956259,1372.0009655831382,6.915489126413377e-05,-2.2833804450783646e-05,0.0,0.0,1.1368683772161603e-12,3.63797880709192e-11,340.4921739130434,70.0,0.0,255.0,0.0
35.65000000000036,35.72727127594202,51.27539855097555,1372.0009653046727,6.915489132097719e-05,-2.283380422340997e-05,1.8189894035458565e-12,5.684341886080801e-13,1.1368683772161603e-12,5.169878828456276e-24,340.48336956521734,70.0,0.0,255.0,0.0
35.700000000000365,35.72727473898888,51.27539741238752,1372.00096502807,6.915489132097719e-05,-2.2833804337096808e-05,0.0,0.0,-2.2737367544323206e-12,-3.637978807091403e-11,340.4745652173912,70.0,0.0,255.0,0.0
35.75000000000037,35.72727820203614,51.275396273798485,1372.0009647505358,6.915489132097719e-05,-2.2833804450783646e-05,-1.8189894035458565e-12,0.0,1.1368683772161603e-12,5.169878828456276e-24,340.46576086956514,70.0,0.0,255.0,0.0
35.80000000000037,35.72728166508379,51.27539513520846,1372.000964473933,6.915489132097719e-05,-2.283380422340997e-05,0.0,-5.684341886080801e-13,1.1368683772161603e-12,3.63797880709192e-11,340.4569565217391,70.0,0.0,255.0,0.0
35.850000000000364,35.72728512813183,51.275393996617424,1372.0009641954675,6.915489126413377e-05,-2.2833804337096808e-05,1.8189894035458565e-12,-1.1368683772161603e-12,-2.2737367544323206e-12,5.169878828456276e-24,340.448152173913,70.0,0.0,255.0,0.0
35.90000000000037,35.72728859118025,51.2753928580254,1372.0009639188647,6.915489120729035e-05,-2.2833804450783646e-05,0.0,5.684341886080801e-13,0.0,-3.637978807091403e-11,340.4393478260869,70.0,0.0,255.0,0.0
35.95000000000037,35.72729205422906,51.27539171943237,1372.0009636413306,6.915489132097719e-05,-2.2833804337096808e-05,-1.8189894035458565e-12,1.1368683772161603e-12,1.1368683772161603e-12,5.169878828456276e-24,340.4305434782608,70.0,0.0,255.0,0.0
36.00000000000037,35.727295517278264,51.27539058083835,1372.0009633637965,6.915489132097719e-05,-2.2833804337096808e-05,0.0,0.0,0.0,3.63797880709192e-11,340.42173913043473,70.0,0.0,255.0,0.0
36.05000000000037,35.727298980327845,51.275389442243316,1372.0009630871937,6.915489132097719e-05,-2.2833804337096808e-05,1.8189894035458565e-12,0.0,0.0,5.169878828456276e-24,340.41293478260866,70.0,0.0,255.0,0.0
36.10000000000037,35.72730244337782,51.27538830364729,1372.0009628096595,6.915489132097719e-05,-2.2833804337096808e-05,0.0,0.0,0.0,-3.637978807091403e-11,340.40413043478253,70.0,0.0,255.0,0.0
36.150000000000375,35.727305906428185,51.27538716505027,1372.000962533988,6.915489132097719e-05,-2.2833804337096808e-05,-1.8189894035458565e-12,0.0,0.0,5.169878828456276e-24,340.39532608695646,70.0,0.0,255.0,0.0
36.20000000000037,35.72730936947895,51.27538602645224,1372.0009622555226,6.915489132097719e-05,-2.2833804337096808e-05,0.0,-5.684341886080801e-13,0.0,3.63797880709192e-11,340.3865217391304,70.0,0.0,255.0,0.0
36.25000000000037,35.727312832530075,51.2753848878532,1372.0009619798511,6.915489126413377e-05,-2.2833804337096808e-05,1.8189894035458565e-12,0.0,0.0,5.169878828456276e-24,340.37771739130426,70.0,0.0,255.0,0.0
36.300000000000374,35.727316295581595,51.27538374925318,1372.000961702317,6.915489132097719e-05,-2.2833804337096808e-05,0.0,5.684341886080801e-13,0.0,-3.637978807091403e-11,340.3689130434782,70.0,0.0,255.0,0.0
36.35000000000038,35.7273197586335,51.27538261065215,1372.0009614266455,6.915489132097719e-05,-2.2833804337096808e-05,-1.8189894035458565e-12,0.0,0.0,5.169878828456276e-24,340.3601086956521,70.0,0.0,255.0,0.0
36.400000000000375,35.72732322168581,51.275381472050114,1372.0009611491114,6.915489132097719e-05,-2.2833804337096808e-05,0.0,0.0,0.0,3.63797880709192e-11,340.35130434782604,70.0,0.0,255.0,0.0
36.45000000000037,35.72732668473849,51.2753803334471,1372.0009608725086,6.915489132097719e-05,-2.2833804337096808e-05,1.8189894035458565e-12,0.0,0.0,5.169878828456276e-24,340.3424999999999,70.0,0.0,255.0,0.0
36.50000000000038,35.72733014779156,51.27537919484306,1372.0009605959058,6.915489132097719e-05,-2.2833804337096808e-05,0.0,0.0,0.0,-3.637978807091403e-11,340.33369565217384,70.0,0.0,255.0,0.0
36.55000000000038,35.727333610845015,51.27537805623804,1372.0009603183717,6.915489132097719e-05,-2.2833804337096808e-05,-1.8189894035458565e-12,0.0,0.0,5.169878828456276e-24,340.3248913043478,70.0,0.0,255.0,0.0
36.60000000000038,35.72733707389886,51.275376917632,1372.0009600408375,6.915489132097719e-05,-2.2833804337096808e-05,0.0,-5.684341886080801e-13,-1.1368683772161603e-12,3.63797880709192e-11,340.3160869565217,70.0,0.0,255.0,0.0
36.650000000000375,35.72734053695309,51.27537577902498,1372.0009597660974,6.915489126413377e-05,-2.2833804450783646e-05,1.8189894035458565e-12,0.0,0.0,5.169878828456276e-24,340.3072826086956,70.0,0.0,255.0,0.0
36.70000000000038,35.7273440000077,51.27537464041694,1372.0009594885632,6.915489132097719e-05,-2.2833804337096808e-05,0.0,5.684341886080801e-13,1.1368683772161603e-12,-3.637978807091403e-11,340.2984782608695,70.0,0.0,255.0,0.0
36.750000000000384,35.727347463062706,51.27537350180792,1372.0009592119604,6.915489132097719e-05,-2.2833804337096808e-05,-1.8189894035458565e-12,0.0,-1.1368683772161603e-12,5.169878828456276e-24,340.28967391304343,70.0,0.0,255.0,0.0
36.80000000000038,35.7273509261181,51.27537236319788,1372.000958936289,6.915489132097719e-05,-2.2833804450783646e-05,0.0,0.0,1.1368683772161603e-12,3.63797880709192e-11,340.2808695652173,70.0,0.0,255.0,0.0
36.85000000000038,35.727354389173854,51.27537122458685,1372.0009586587548,6.915489132097719e-05,-2.283380422340997e-05,1.8189894035458565e-12,0.0,1.1368683772161603e-12,5.169878828456276e-24,340.27206521739123,70.0,0.0,255.0,0.0
36.90000000000038,35.72735785223002,51.27537008597482,1372.000958384946,6.915489132097719e-05,-2.2833804337096808e-05,0.0,0.0,-2.2737367544323206e-12,-3.637978807091403e-11,340.26326086956516,70.0,0.0,255.0,0.0
36.95000000000039,35.72736131528656,51.275368947361784,1372.0009581064805,6.915489132097719e-05,-2.2833804450783646e-05,-1.8189894035458565e-12,0.0,1.1368683772161603e-12,5.169878828456276e-24,340.2544565217391,70.0,0.0,255.0,0.0
37.000000000000384,35.72736477834349,51.27536780874773,1372.0009578317404,6.915489132097719e-05,-2.283380422340997e-05,0.0,-5.684341886080801e-13,1.1368683772161603e-12,3.63797880709192e-11,340.24565217391296,70.0,0.0,255.0,0.0
37.05000000000038,35.72736824140081,51.275366670132705,1372.0009575542063,6.915489126413377e-05,-2.2833804337096808e-05,1.8189894035458565e-12,0.0,-2.2737367544323206e-12,5.169878828456276e-24,340.2368478260869,70.0,0.0,255.0,0.0
37.100000000000385,35.727371704458506,51.27536553151667,1372.0009572776034,6.915489132097719e-05,-2.2833804450783646e-05,0.0,5.684341886080801e-13,0.0,-3.637978807091403e-11,340.2280434782608,70.0,0.0,255.0,0.0
37.15000000000039,35.72737516751659,51.275364392899625,1372.0009570010006,6.915489132097719e-05,-2.2833804337096808e-05,-1.8189894035458565e-12,0.0,1.1368683772161603e-12,5.169878828456276e-24,340.21923913043474,70.0,0.0,255.0,0.0
37.20000000000039,35.72737863057505,51.27536325428159,1372.0009567262605,6.915489132097719e-05,-2.2833804337096808e-05,0.0,0.0,0.0,3.63797880709192e-11,340.2104347826086,70.0,0.0,255.0,0.0
37.250000000000384,35.72738209363391,51.27536211566254,1372.0009564487264,6.915489132097719e-05,-2.2833804337096808e-05,1.8189894035458565e-12,0.0,0.0,5.169878828456276e-24,340.20163043478254,70.0,0.0,255.0,0.0
37.30000000000039,35.72738555669314,51.275360977042496,1372.0009561739862,6.915489132097719e-05,-2.2833804337096808e-05,0.0,-5.684341886080801e-13,0.0,-3.637978807091403e-11,340.1928260869565,70.0,0.0,255.0,0.0
37.35000000000039,35.72738901975277,51.275359838421444,1372.0009558973834,6.915489126413377e-05,-2.2833804337096808e-05,-1.8189894035458565e-12,0.0,0.0,5.169878828456276e-24,340.18402173913034,70.0,0.0,255.0,0.0
37.40000000000039,35.72739248281277,51.275358699799405,1372.0009556226432,6.915489132097719e-05,-2.2833804337096808e-05,0.0,0.0,0.0,3.63797880709192e-11,340.1752173913043,70.0,0.0,255.0,0.0
37.45000000000039,35.727395945873155,51.27535756117635,1372.0009553460404,6.915489126413377e-05,-2.2833804337096808e-05,1.8189894035458565e-12,0.0,0.0,5.169878828456276e-24,340.1664130434782,70.0,0.0,255.0,0.0
37.50000000000039,35.727399408933934,51.2753564225523,1372.000955070369,6.915489132097719e-05,-2.2833804337096808e-05,0.0,5.684341886080801e-13,0.0,-3.637978807091403e-11,340.15760869565213,70.0,0.0,255.0,0.0
37.550000000000395,35.727402871995096,51.27535528392725,1372.0009547937661,6.915489132097719e-05,-2.2833804337096808e-05,-1.8189894035458565e-12,0.0,-1.1368683772161603e-12,5.169878828456276e-24,340.148804347826,70.0,0.0,255.0,0.0
37.60000000000039,35.727406335056635,51.275354145301186,1372.0009545180947,6.915489132097719e-05,-2.2833804450783646e-05,0.0,-5.684341886080801e-13,0.0,3.63797880709192e-11,340.13999999999993,70.0,0.0,255.0,0.0
37.65000000000039,35.72740979811855,51.27535300667413,1372.0009542405605,6.915489126413377e-05,-2.2833804337096808e-05,1.8189894035458565e-12,0.0,2.2737367544323206e-12,5.169878828456276e-24,340.13119565217386,70.0,0.0,255.0,0.0
37.700000000000394,35.727413261180864,51.27535186804608,1372.0009539667517,6.915489132097719e-05,-2.283380422340997e-05,0.0,1.1368683772161603e-12,-1.1368683772161603e-12,-3.637978807091403e-11,340.1223913043478,70.0,0.0,255.0,0.0
37.7500000000004,35.72741672424357,51.27535072941702,1372.0009536910802,6.91548913778206e-05,-2.2833804450783646e-05,-1.8189894035458565e-12,0.0,-1.1368683772161603e-12,5.169878828456276e-24,340.11358695652166,70.0,0.0,255.0,0.0
37.800000000000395,35.727420187306635,51.275349590786945,1372.00095341634,6.915489132097719e-05,-2.2833804337096808e-05,0.0,-1.1368683772161603e-12,1.1368683772161603e-12,3.63797880709192e-11,340.1047826086956,70.0,0.0,255.0,0.0
37.85000000000039,35.72742365037009,51.27534845215589,1372.0009531397372,6.915489126413377e-05,-2.2833804337096808e-05,1.8189894035458565e-12,0.0,-1.1368683772161603e-12,5.169878828456276e-24,340.0959782608695,70.0,0.0,255.0,0.0
37.9000000000004,35.72742711343393,51.27534731352382,1372.0009528631344,6.915489132097719e-05,-2.2833804450783646e-05,0.0,5.684341886080801e-13,0.0,-3.637978807091403e-11,340.0871739130434,70.0,0.0,255.0,0.0
37.9500000000004,35.727430576498165,51.275346174890736,1372.000952587463,6.915489132097719e-05,-2.2833804337096808e-05,-1.8189894035458565e-12,0.0,1.1368683772161603e-12,5.169878828456276e-24,340.0783695652173,70.0,0.0,255.0,0.0
38.0000000000004,35.72743403956277,51.275345036256674,1372.0009523127228,6.915489132097719e-05,-2.2833804337096808e-05,0.0,-5.684341886080801e-13,0.0,3.63797880709192e-11,340.06956521739124,70.0,0.0,255.0,0.0
38.050000000000395,35.72743750262776,51.275343897621596,1372.0009520370513,6.915489126413377e-05,-2.2833804337096808e-05,1.8189894035458565e-12,0.0,0.0,5.169878828456276e-24,340.0607608695652,70.0,0.0,255.0,0.0
38.1000000000004,35.727440965693134,51.27534275898551,1372.0009517623112,6.915489132097719e-05,-2.2833804337096808e-05,0.0,1.1368683772161603e-12,0.0,-3.637978807091403e-11,340.05195652173904,70.0,0.0,255.0,0.0
38.150000000000404,35.727444428758886,51.275341620348435,1372.0009514866397,6.91548913778206e-05,-2.2833804337096808e-05,-1.8189894035458565e-12,0.0,0.0,5.169878828456276e-24,340.043152173913,70.0,0.0,255.0,0.0
38.2000000000004,35.72744789182502,51.27534048171036,1372.0009512109682,6.915489132097719e-05,-2.2833804337096808e-05,0.0,-1.1368683772161603e-12,0.0,3.63797880709192e-11,340.0343478260869,70.0,0.0,255.0,0.0
38.2500000000004,35.72745135489154,51.27533934307126,1372.000950936228,6.915489126413377e-05,-2.2833804337096808e-05,1.8189894035458565e-12,0.0,0.0,5.169878828456276e-24,340.02554347826083,70.0,0.0,255.0,0.0
38.3000000000004,35.72745481795844,51.27533820443117,1372.0009506624192,6.915489132097719e-05,-2.2833804337096808e-05,0.0,5.684341886080801e-13,0.0,-3.637978807091403e-11,340.0167391304347,70.0,0.0,255.0,0.0
38.350000000000406,35.72745828102573,51.275337065790076,1372.0009503858164,6.915489132097719e-05,-2.2833804337096808e-05,-1.8189894035458565e-12,0.0,0.0,5.169878828456276e-24,340.00793478260863,70.0,0.0,255.0,0.0
38.400000000000404,35.72746174409338,51.275335927147985,1372.000950110145,6.915489132097719e-05,-2.2833804337096808e-05,0.0,-5.684341886080801e-13,0.0,3.63797880709192e-11,339.99913043478256,70.0,0.0,255.0,0.0
38.4500000000004,35.72746520716144,51.275334788504885,1372.000949836336,6.915489126413377e-05,-2.2833804337096808e-05,1.8189894035458565e-12,0.0,0.0,5.169878828456276e-24,339.99032608695643,70.0,0.0,255.0,0.0
38.500000000000405,35.72746867022986,51.275333649860784,1372.0009495606646,6.915489132097719e-05,-2.2833804337096808e-05,0.0,1.1368683772161603e-12,0.0,-3.637978807091403e-11,339.98152173913036,70.0,0.0,255.0,0.0
38.55000000000041,35.72747213329868,51.275332511215666,1372.0009492868558,6.91548913778206e-05,-2.2833804337096808e-05,-1.8189894035458565e-12,0.0,0.0,5.169878828456276e-24,339.9727173913043,70.0,0.0,255.0,0.0
38.600000000000406,35.72747559636787,51.27533137256956,1372.000949010253,6.915489132097719e-05,-2.2833804337096808e-05,0.0,-1.1368683772161603e-12,0.0,3.63797880709192e-11,339.9639130434782,70.0,0.0,255.0,0.0
38.650000000000404,35.727479059437435,51.275330233922446,1372.0009487345815,6.915489126413377e-05,-2.2833804337096808e-05,1.8189894035458565e-12,0.0,0.0,5.169878828456276e-24,339.9551086956521,70.0,0.0,255.0,0.0
38.70000000000041,35.727482522507394,51.27532909527432,1372.0009484607726,6.915489132097719e-05,-2.2833804337096808e-05,0.0,5.684341886080801e-13,0.0,-3.637978807091403e-11,339.946304347826,70.0,0.0,255.0,0.0
38.75000000000041,35.72748598557772,51.27532795662522,1372.0009481860325,6.915489132097719e-05,-2.2833804337096808e-05,-1.8189894035458565e-12,-5.684341886080801e-13,-1.1368683772161603e-12,5.169878828456276e-24,339.93749999999994,70.0,0.0,255.0,0.0
38.80000000000041,35.727489448648434,51.27532681797508,1372.0009479112923,6.915489126413377e-05,-2.2833804450783646e-05,0.0,-5.684341886080801e-13,0.0,3.63797880709192e-11,339.9286956521739,70.0,0.0,255.0,0.0
38.850000000000406,35.72749291171952,51.27532567932396,1372.0009476365522,6.915489126413377e-05,-2.2833804337096808e-05,1.8189894035458565e-12,0.0,2.2737367544323206e-12,5.169878828456276e-24,339.91989130434774,70.0,0.0,255.0,0.0
38.90000000000041,35.727496374791,51.27532454067183,1372.0009473608807,6.915489126413377e-05,-2.283380422340997e-05,0.0,1.1368683772161603e-12,-1.1368683772161603e-12,-3.637978807091403e-11,339.9110869565217,70.0,0.0,255.0,0.0
38.950000000000415,35.727499837862865,51.2753234020187,1372.0009470861405,6.91548913778206e-05,-2.2833804450783646e-05,-1.8189894035458565e-12,0.0,-1.1368683772161603e-12,5.169878828456276e-24,339.9022826086956,70.0,0.0,255.0,0.0
39.00000000000041,35.72750330093508,51.27532226336455,1372.000946813263,6.915489126413377e-05,-2.2833804337096808e-05,0.0,-1.1368683772161603e-12,1.1368683772161603e-12,3.63797880709192e-11,339.8934782608695,70.0,0.0,255.0,0.0
39.05000000000041,35.72750676400771,51.27532112470941,1372.0009465385228,6.915489126413377e-05,-2.2833804337096808e-05,1.8189894035458565e-12,5.684341886080801e-13,-1.1368683772161603e-12,5.169878828456276e-24,339.8846739130434,70.0,0.0,255.0,0.0
39.10000000000041,35.7275102270807,51.27531998605326,1372.0009462637827,6.915489132097719e-05,-2.2833804450783646e-05,0.0,5.684341886080801e-13,0.0,-3.637978807091403e-11,339.87586956521733,70.0,0.0,255.0,0.0
39.15000000000042,35.727513690154076,51.27531884739611,1372.0009459881112,6.915489132097719e-05,-2.2833804337096808e-05,-1.8189894035458565e-12,0.0,1.1368683772161603e-12,5.169878828456276e-24,339.86706521739126,70.0,0.0,255.0,0.0
39.200000000000415,35.727517153227836,51.275317708737944,1372.0009457143024,6.915489132097719e-05,-2.2833804337096808e-05,0.0,-5.684341886080801e-13,0.0,3.63797880709192e-11,339.85826086956513,70.0,0.0,255.0,0.0
39.25000000000041,35.727520616301966,51.27531657007879,1372.0009454404935,6.915489126413377e-05,-2.2833804337096808e-05,1.8189894035458565e-12,-5.684341886080801e-13,0.0,5.169878828456276e-24,339.84945652173906,70.0,0.0,255.0,0.0
39.300000000000416,35.72752407937649,51.275315431418626,1372.0009451657534,6.915489126413377e-05,-2.2833804337096808e-05,0.0,1.1368683772161603e-12,0.0,-3.637978807091403e-11,339.840652173913,70.0,0.0,255.0,0.0
39.35000000000042,35.727527542451384,51.27531429275745,1372.0009448900819,6.91548913778206e-05,-2.2833804337096808e-05,-1.8189894035458565e-12,0.0,0.0,5.169878828456276e-24,339.8318478260869,70.0,0.0,255.0,0.0
39.40000000000042,35.72753100552664,51.27531315409527,1372.000944616273,6.915489126413377e-05,-2.2833804337096808e-05,0.0,-1.1368683772161603e-12,0.0,3.63797880709192e-11,339.8230434782608,70.0,0.0,255.0,0.0
39.450000000000415,35.7275344686023,51.2753120154321,1372.0009443406016,6.915489126413377e-05,-2.2833804337096808e-05,1.8189894035458565e-12,5.684341886080801e-13,0.0,5.169878828456276e-24,339.8142391304347,70.0,0.0,255.0,0.0
39.50000000000042,35.72753793167834,51.27531087676791,1372.0009440686554,6.915489132097719e-05,-2.2833804337096808e-05,0.0,5.684341886080801e-13,0.0,-3.637978807091403e-11,339.80543478260864,70.0,0.0,255.0,0.0
39.55000000000042,35.72754139475475,51.27530973810273,1372.0009437939152,6.915489132097719e-05,-2.2833804337096808e-05,-1.8189894035458565e-12,0.0,0.0,5.169878828456276e-24,339.7966304347825,70.0,0.0,255.0,0.0
39.60000000000042,35.72754485783153,51.275308599436535,1372.0009435201064,6.915489132097719e-05,-2.2833804337096808e-05,0.0,-5.684341886080801e-13,0.0,3.63797880709192e-11,339.78782608695644,70.0,0.0,255.0,0.0
39.65000000000042,35.727548320908696,51.27530746076934,1372.0009432453662,6.915489126413377e-05,-2.2833804337096808e-05,1.8189894035458565e-12,-5.684341886080801e-13,0.0,5.169878828456276e-24,339.77902173913037,70.0,0.0,255.0,0.0
39.70000000000042,35.72755178398626,51.27530632210113,1372.0009429715574,6.915489126413377e-05,-2.2833804337096808e-05,0.0,1.1368683772161603e-12,-1.1368683772161603e-12,-3.637978807091403e-11,339.7702173913043,70.0,0.0,255.0,0.0
39.750000000000426,35.72755524706417,51.27530518343193,1372.0009426977485,6.91548913778206e-05,-2.2833804450783646e-05,-1.8189894035458565e-12,0.0,0.0,5.169878828456276e-24,339.76141304347817,70.0,0.0,255.0,0.0
39.80000000000042,35.727558710142475,51.27530404476171,1372.0009424230084,6.915489126413377e-05,-2.2833804337096808e-05,0.0,-1.1368683772161603e-12,2.2737367544323206e-12,3.63797880709192e-11,339.7526086956521,70.0,0.0,255.0,0.0
39.85000000000042,35.72756217322116,51.27530290609049,1372.0009421491995,6.915489126413377e-05,-2.283380422340997e-05,1.8189894035458565e-12,5.684341886080801e-13,-1.1368683772161603e-12,5.169878828456276e-24,339.743804347826,70.0,0.0,255.0,0.0
39.900000000000425,35.72756563630021,51.27530176741828,1372.000941876322,6.915489132097719e-05,-2.2833804450783646e-05,0.0,5.684341886080801e-13,-1.1368683772161603e-12,-3.637978807091403e-11,339.73499999999996,70.0,0.0,255.0,0.0
39.95000000000043,35.72756909937965,51.275300628745036,1372.0009416015819,6.915489132097719e-05,-2.2833804337096808e-05,-1.8189894035458565e-12,0.0,1.1368683772161603e-12,5.169878828456276e-24,339.7261956521738,70.0,0.0,255.0,0.0
40.000000000000426,35.727572562459464,51.2752994900708,1372.000941327773,6.915489132097719e-05,-2.2833804337096808e-05,0.0,-5.684341886080801e-13,-1.1368683772161603e-12,3.63797880709192e-11,339.71739130434776,70.0,0.0,255.0,0.0
40.05000000000042,35.72757602553964,51.27529835139557,1372.0009410539642,6.915489126413377e-05,-2.2833804450783646e-05,1.8189894035458565e-12,-5.684341886080801e-13,1.1368683772161603e-12,5.169878828456276e-24,339.7085869565217,70.0,0.0,255.0,0.0
40.10000000000043,35.72757948862023,51.27529721271932,1372.0009407810867,6.915489126413377e-05,-2.283380422340997e-05,0.0,0.0,1.1368683772161603e-12,-3.637978807091403e-11,339.69978260869556,70.0,0.0,255.0,0.0
40.15000000000043,35.72758295170116,51.27529607404207,1372.0009405072778,6.915489126413377e-05,-2.2833804337096808e-05,-1.8189894035458565e-12,0.0,-2.2737367544323206e-12,5.169878828456276e-24,339.6909782608695,70.0,0.0,255.0,0.0
40.20000000000043,35.727586414782486,51.27529493536381,1372.0009402325377,6.915489126413377e-05,-2.2833804450783646e-05,0.0,5.684341886080801e-13,0.0,3.63797880709192e-11,339.6821739130434,70.0,0.0,255.0,0.0
