t,lat,lon,alt,vx,vy,vz,ax,ay,az,yaw,mode,ledr,ledg,ledb
10.0,35.725480798822076,51.275918471876494,1372.0007707579061,6.915489123571107e-05,-2.28338043939399e-05,0.0,1.705322352513864e-12,1.1368618720031092e-12,0.0,345.0,70.0,0.0,255.0,0.0
10.05,35.725484253628,51.275917336425096,1372.0007707327604,6.915489132097719e-05,-2.2833804337096808e-05,0.0,2.842269605438097e-13,5.684309360015627e-13,0.0,344.99119565217393,70.0,0.0,255.0,0.0
10.100000000000001,35.7254877084347,51.27591620097425,1372.000770705752,6.915489126413377e-05,-2.2833804337096808e-05,0.0,0.0,-1.1368683772161603e-12,0.0,344.9823913043478,70.0,0.0,255.0,0.0
10.150000000000002,35.725491163242175,51.27591506552395,1372.0007706787437,6.915489132097719e-05,-2.2833804450783646e-05,0.0,5.684341886080801e-13,0.0,0.0,344.97358695652173,70.0,0.0,255.0,0.0
10.200000000000003,35.72549461805043,51.2759139300742,1372.0007706517354,6.915489132097719e-05,-2.2833804337096808e-05,0.0,0.0,2.2737367544323206e-12,0.0,344.96478260869566,70.0,0.0,255.0,0.0
10.250000000000004,35.725498072859466,51.275912794625015,1372.0007706265897,6.915489132097719e-05,-2.283380422340997e-05,0.0,0.0,0.0,0.0,344.9559782608696,70.0,0.0,255.0,0.0
10.300000000000004,35.7255015276693,51.27591165917638,1372.0007705995813,6.915489132097719e-05,-2.2833804337096808e-05,0.0,-5.684341886080801e-13,-1.1368683772161603e-12,0.0,344.94717391304346,70.0,0.0,255.0,0.0
10.350000000000005,35.7255049824799,51.27591052372829,1372.0007705744356,6.915489126413377e-05,-2.2833804337096808e-05,0.0,0.0,0.0,0.0,344.9383695652174,70.0,0.0,255.0,0.0
10.400000000000006,35.72550843729129,51.275909388280766,1372.000770546496,6.915489132097719e-05,-2.2833804337096808e-05,0.0,5.684341886080801e-13,-1.1368683772161603e-12,0.0,344.9295652173913,70.0,0.0,255.0,0.0
10.450000000000006,35.72551189210346,51.27590825283378,1372.0007705204189,6.915489132097719e-05,-2.2833804450783646e-05,0.0,-5.684341886080801e-13,0.0,0.0,344.92076086956524,70.0,0.0,255.0,0.0
10.500000000000007,35.72551534691641,51.275907117387355,1372.0007704934105,6.915489126413377e-05,-2.2833804337096808e-05,0.0,0.0,1.1368683772161603e-12,0.0,344.9119565217391,70.0,0.0,255.0,0.0
10.550000000000008,35.72551880173015,51.275905981941484,1372.0007704673335,6.915489132097719e-05,-2.2833804337096808e-05,0.0,5.684341886080801e-13,0.0,0.0,344.90315217391304,70.0,0.0,255.0,0.0
10.600000000000009,35.725522256544664,51.275904846496175,1372.0007704403251,6.915489132097719e-05,-2.2833804337096808e-05,0.0,0.0,0.0,0.0,344.89434782608697,70.0,0.0,255.0,0.0
10.65000000000001,35.725525711359964,51.2759037110514,1372.0007704133168,6.915489132097719e-05,-2.2833804337096808e-05,0.0,0.0,0.0,0.0,344.88554347826084,70.0,0.0,255.0,0.0
10.70000000000001,35.72552916617606,51.2759025756072,1372.000770385377,6.915489132097719e-05,-2.2833804337096808e-05,0.0,-5.684341886080801e-13,0.0,0.0,344.87673913043477,70.0,0.0,255.0,0.0
10.75000000000001,35.725532620992915,51.27590144016353,1372.0007703602314,6.915489126413377e-05,-2.2833804337096808e-05,0.0,0.0,0.0,0.0,344.8679347826087,70.0,0.0,255.0,0.0
10.800000000000011,35.725536075810574,51.27590030472042,1372.000770333223,6.915489132097719e-05,-2.2833804337096808e-05,0.0,5.684341886080801e-13,0.0,0.0,344.8591304347826,70.0,0.0,255.0,0.0
10.850000000000012,35.725539530629,51.275899169277864,1372.000770304352,6.915489132097719e-05,-2.2833804337096808e-05,0.0,-5.684341886080801e-13,-1.1368683772161603e-12,0.0,344.8503260869565,70.0,0.0,255.0,0.0
10.900000000000013,35.725542985448214,51.27589803383585,1372.0007702764124,6.915489126413377e-05,-2.2833804450783646e-05,0.0,0.0,0.0,0.0,344.8415217391304,70.0,0.0,255.0,0.0
10.950000000000014,35.72554644026821,51.275896898394386,1372.000770249404,6.915489132097719e-05,-2.2833804337096808e-05,0.0,5.684341886080801e-13,1.1368683772161603e-12,0.0,344.83271739130436,70.0,0.0,255.0,0.0
11.000000000000014,35.725549895089,51.275895762953496,1372.000770223327,6.915489132097719e-05,-2.2833804337096808e-05,0.0,0.0,0.0,0.0,344.8239130434783,70.0,0.0,255.0,0.0
11.050000000000015,35.72555334991057,51.27589462751314,1372.000770194456,6.915489132097719e-05,-2.2833804337096808e-05,0.0,0.0,0.0,0.0,344.81510869565216,70.0,0.0,255.0,0.0
11.100000000000016,35.72555680473292,51.27589349207334,1372.0007701665163,6.915489132097719e-05,-2.2833804337096808e-05,0.0,-5.684341886080801e-13,0.0,0.0,344.8063043478261,70.0,0.0,255.0,0.0
11.150000000000016,35.72556025955604,51.27589235663408,1372.0007701385766,6.915489126413377e-05,-2.2833804337096808e-05,0.0,0.0,0.0,0.0,344.7975,70.0,0.0,255.0,0.0
11.200000000000017,35.72556371437996,51.275891221195394,1372.0007701124996,6.915489132097719e-05,-2.2833804337096808e-05,0.0,5.684341886080801e-13,-1.1368683772161603e-12,0.0,344.7886956521739,70.0,0.0,255.0,0.0
11.250000000000018,35.72556716920465,51.27589008575724,1372.0007700836286,6.915489132097719e-05,-2.2833804450783646e-05,0.0,-5.684341886080801e-13,0.0,0.0,344.7798913043478,70.0,0.0,255.0,0.0
11.300000000000018,35.72557062403014,51.27588895031964,1372.0007700547576,6.915489126413377e-05,-2.2833804337096808e-05,0.0,0.0,1.1368683772161603e-12,0.0,344.77108695652174,70.0,0.0,255.0,0.0
11.35000000000002,35.725574078856404,51.27588781488261,1372.0007700286806,6.915489132097719e-05,-2.2833804337096808e-05,0.0,5.684341886080801e-13,0.0,0.0,344.76228260869567,70.0,0.0,255.0,0.0
11.40000000000002,35.72557753368345,51.275886679446096,1372.0007700016722,6.915489132097719e-05,-2.2833804337096808e-05,0.0,-1.1368683772161603e-12,1.1368683772161603e-12,0.0,344.75347826086954,70.0,0.0,255.0,0.0
11.45000000000002,35.72558098851128,51.27588554401015,1372.0007699728012,6.915489120729035e-05,-2.283380422340997e-05,0.0,0.0,0.0,0.0,344.74467391304347,70.0,0.0,255.0,0.0
11.500000000000021,35.72558444333989,51.275884408574754,1372.0007699439302,6.915489132097719e-05,-2.2833804337096808e-05,0.0,1.1368683772161603e-12,-2.2737367544323206e-12,0.0,344.7358695652174,70.0,0.0,255.0,0.0
11.550000000000022,35.72558789816931,51.27588327313991,1372.0007699150592,6.915489132097719e-05,-2.2833804450783646e-05,0.0,0.0,0.0,0.0,344.7270652173913,70.0,0.0,255.0,0.0
11.600000000000023,35.725591352999494,51.275882137705615,1372.0007698861882,6.915489132097719e-05,-2.2833804337096808e-05,0.0,0.0,1.1368683772161603e-12,0.0,344.7182608695652,70.0,0.0,255.0,0.0
11.650000000000023,35.725594807830454,51.27588100227187,1372.0007698591799,6.915489132097719e-05,-2.2833804337096808e-05,0.0,-5.684341886080801e-13,-1.1368683772161603e-12,0.0,344.7094565217391,70.0,0.0,255.0,0.0
11.700000000000024,35.72559826266221,51.27587986683865,1372.0007698293775,6.915489126413377e-05,-2.2833804450783646e-05,0.0,0.0,0.0,0.0,344.70065217391306,70.0,0.0,255.0,0.0
11.750000000000025,35.72560171749475,51.27587873140601,1372.0007698023692,6.915489132097719e-05,-2.2833804337096808e-05,0.0,5.684341886080801e-13,2.2737367544323206e-12,0.0,344.6918478260869,70.0,0.0,255.0,0.0
11.800000000000026,35.72560517232807,51.27587759597391,1372.0007697725669,6.915489132097719e-05,-2.283380422340997e-05,0.0,-5.684341886080801e-13,0.0,0.0,344.68304347826086,70.0,0.0,255.0,0.0
11.850000000000026,35.725608627162174,51.275876460542364,1372.0007697455585,6.915489126413377e-05,-2.2833804337096808e-05,0.0,0.0,-1.1368683772161603e-12,0.0,344.6742391304348,70.0,0.0,255.0,0.0
11.900000000000027,35.725612081997056,51.27587532511135,1372.0007697166875,6.915489132097719e-05,-2.2833804337096808e-05,0.0,5.684341886080801e-13,0.0,0.0,344.6654347826087,70.0,0.0,255.0,0.0
11.950000000000028,35.72561553683275,51.2758741896809,1372.0007696859539,6.915489132097719e-05,-2.2833804337096808e-05,0.0,0.0,-1.1368683772161603e-12,0.0,344.6566304347826,70.0,0.0,255.0,0.0
12.000000000000028,35.725618991669194,51.275873054250994,1372.0007696580142,6.915489132097719e-05,-2.2833804450783646e-05,0.0,0.0,0.0,0.0,344.6478260869565,70.0,0.0,255.0,0.0
12.05000000000003,35.72562244650644,51.275871918821636,1372.0007696282119,6.915489132097719e-05,-2.2833804337096808e-05,0.0,-5.684341886080801e-13,1.1368683772161603e-12,0.0,344.63902173913044,70.0,0.0,255.0,0.0
12.10000000000003,35.725625901344465,51.275870783392826,1372.0007696002722,6.915489126413377e-05,-2.2833804337096808e-05,0.0,0.0,0.0,0.0,344.63021739130437,70.0,0.0,255.0,0.0
12.15000000000003,35.72562935618329,51.275869647964576,1372.0007695695385,6.915489132097719e-05,-2.2833804337096808e-05,0.0,5.684341886080801e-13,0.0,0.0,344.62141304347824,70.0,0.0,255.0,0.0
12.200000000000031,35.72563281102289,51.27586851253685,1372.0007695406675,6.915489132097719e-05,-2.2833804337096808e-05,0.0,-5.684341886080801e-13,0.0,0.0,344.61260869565217,70.0,0.0,255.0,0.0
12.250000000000032,35.725636265863265,51.2758673771097,1372.0007695117965,6.915489126413377e-05,-2.2833804337096808e-05,0.0,0.0,0.0,0.0,344.6038043478261,70.0,0.0,255.0,0.0
12.300000000000033,35.72563972070443,51.275866241683076,1372.0007694819942,6.915489132097719e-05,-2.2833804337096808e-05,0.0,5.684341886080801e-13,0.0,0.0,344.59499999999997,70.0,0.0,255.0,0.0
12.350000000000033,35.725643175546395,51.275865106257,1372.0007694531232,6.915489132097719e-05,-2.2833804337096808e-05,0.0,0.0,0.0,0.0,344.5861956521739,70.0,0.0,255.0,0.0
12.400000000000034,35.72564663038912,51.27586397083148,1372.000769423321,6.915489132097719e-05,-2.2833804337096808e-05,0.0,0.0,-1.1368683772161603e-12,0.0,344.5773913043478,70.0,0.0,255.0,0.0
12.450000000000035,35.72565008523266,51.2758628354065,1372.000769391656,6.915489132097719e-05,-2.2833804450783646e-05,0.0,-5.684341886080801e-13,0.0,0.0,344.56858695652176,70.0,0.0,255.0,0.0
12.500000000000036,35.725653540076955,51.27586169998207,1372.0007693637162,6.915489126413377e-05,-2.2833804337096808e-05,0.0,0.0,1.1368683772161603e-12,0.0,344.5597826086956,70.0,0.0,255.0,0.0
12.550000000000036,35.72565699492206,51.27586056455819,1372.0007693348452,6.915489132097719e-05,-2.2833804337096808e-05,0.0,5.684341886080801e-13,0.0,0.0,344.55097826086956,70.0,0.0,255.0,0.0
12.600000000000037,35.72566044976794,51.27585942913486,1372.0007693031803,6.915489132097719e-05,-2.2833804337096808e-05,0.0,-5.684341886080801e-13,1.1368683772161603e-12,0.0,344.5421739130435,70.0,0.0,255.0,0.0
12.650000000000038,35.7256639046146,51.27585829371206,1372.0007692743093,6.915489126413377e-05,-2.283380422340997e-05,0.0,0.0,0.0,0.0,344.5333695652174,70.0,0.0,255.0,0.0
12.700000000000038,35.72566735946205,51.27585715828983,1372.000769244507,6.915489132097719e-05,-2.2833804337096808e-05,0.0,5.684341886080801e-13,-2.2737367544323206e-12,0.0,344.5245652173913,70.0,0.0,255.0,0.0
12.750000000000039,35.725670814310284,51.27585602286812,1372.0007692137733,6.915489132097719e-05,-2.2833804450783646e-05,0.0,0.0,-1.1368683772161603e-12,0.0,344.5157608695652,70.0,0.0,255.0,0.0
12.80000000000004,35.72567426915931,51.275854887446975,1372.000769183971,6.915489132097719e-05,-2.2833804450783646e-05,0.0,0.0,1.1368683772161603e-12,0.0,344.50695652173914,70.0,0.0,255.0,0.0
12.85000000000004,35.72567772400911,51.27585375202637,1372.0007691551,6.915489132097719e-05,-2.2833804337096808e-05,0.0,-1.1368683772161603e-12,1.1368683772161603e-12,0.0,344.498152173913,70.0,0.0,255.0,0.0
12.900000000000041,35.7256811788597,51.275852616606315,1372.0007691243663,6.915489120729035e-05,-2.2833804337096808e-05,0.0,0.0,0.0,0.0,344.48934782608694,70.0,0.0,255.0,0.0
12.950000000000042,35.72568463371108,51.275851481186805,1372.0007690936327,6.915489132097719e-05,-2.2833804337096808e-05,0.0,1.1368683772161603e-12,1.1368683772161603e-12,0.0,344.48054347826087,70.0,0.0,255.0,0.0
13.000000000000043,35.72568808856325,51.27585034576783,1372.0007690619677,6.915489132097719e-05,-2.283380422340997e-05,0.0,-5.684341886080801e-13,0.0,0.0,344.4717391304348,70.0,0.0,255.0,0.0
13.050000000000043,35.72569154341619,51.275849210349406,1372.000769031234,6.915489126413377e-05,-2.2833804337096808e-05,0.0,0.0,-2.2737367544323206e-12,0.0,344.46293478260867,70.0,0.0,255.0,0.0
13.100000000000044,35.72569499826994,51.27584807493153,1372.0007690005004,6.915489132097719e-05,-2.2833804450783646e-05,0.0,5.684341886080801e-13,0.0,0.0,344.4541304347826,70.0,0.0,255.0,0.0
13.150000000000045,35.72569845312446,51.2758469395142,1372.0007689706981,6.915489132097719e-05,-2.2833804337096808e-05,0.0,-5.684341886080801e-13,1.1368683772161603e-12,0.0,344.4453260869565,70.0,0.0,255.0,0.0
13.200000000000045,35.725701907979776,51.27584580409742,1372.0007689390332,6.915489126413377e-05,-2.2833804337096808e-05,0.0,0.0,-1.1368683772161603e-12,0.0,344.43652173913046,70.0,0.0,255.0,0.0
13.250000000000046,35.72570536283586,51.275844668681174,1372.0007689101622,6.915489132097719e-05,-2.2833804450783646e-05,0.0,5.684341886080801e-13,0.0,0.0,344.4277173913043,70.0,0.0,255.0,0.0
13.300000000000047,35.72570881769275,51.27584353326548,1372.0007688775659,6.915489132097719e-05,-2.2833804337096808e-05,0.0,0.0,2.2737367544323206e-12,0.0,344.41891304347826,70.0,0.0,255.0,0.0
13.350000000000048,35.7257122725504,51.27584239785033,1372.0007688477635,6.915489132097719e-05,-2.283380422340997e-05,0.0,0.0,0.0,0.0,344.4101086956522,70.0,0.0,255.0,0.0
13.400000000000048,35.72571572740887,51.27584126243572,1372.0007688160986,6.915489132097719e-05,-2.2833804337096808e-05,0.0,-5.684341886080801e-13,-1.1368683772161603e-12,0.0,344.40130434782606,70.0,0.0,255.0,0.0
13.450000000000049,35.725719182268094,51.27584012702165,1372.0007687862962,6.915489126413377e-05,-2.2833804337096808e-05,0.0,0.0,0.0,0.0,344.3925,70.0,0.0,255.0,0.0
13.50000000000005,35.72572263712813,51.27583899160813,1372.0007687537,6.915489132097719e-05,-2.2833804337096808e-05,0.0,5.684341886080801e-13,-1.1368683772161603e-12,0.0,344.3836956521739,70.0,0.0,255.0,0.0
13.55000000000005,35.72572609198896,51.275837856195146,1372.000768722035,6.915489132097719e-05,-2.2833804450783646e-05,0.0,-5.684341886080801e-13,0.0,0.0,344.37489130434784,70.0,0.0,255.0,0.0
13.600000000000051,35.72572954685056,51.27583672078271,1372.00076869037,6.915489126413377e-05,-2.2833804337096808e-05,0.0,0.0,1.1368683772161603e-12,0.0,344.3660869565217,70.0,0.0,255.0,0.0
13.650000000000052,35.725733001712925,51.27583558537083,1372.0007686596364,6.915489132097719e-05,-2.2833804337096808e-05,0.0,5.684341886080801e-13,0.0,0.0,344.35728260869564,70.0,0.0,255.0,0.0
13.700000000000053,35.725736456576115,51.27583444995949,1372.00076862704,6.915489132097719e-05,-2.2833804337096808e-05,0.0,0.0,0.0,0.0,344.34847826086957,70.0,0.0,255.0,0.0
13.750000000000053,35.725739911440066,51.27583331454868,1372.0007685963064,6.915489132097719e-05,-2.2833804337096808e-05,0.0,0.0,0.0,0.0,344.33967391304344,70.0,0.0,255.0,0.0
13.800000000000054,35.725743366304826,51.275832179138426,1372.0007685637102,6.915489132097719e-05,-2.2833804337096808e-05,0.0,-5.684341886080801e-13,0.0,0.0,344.33086956521737,70.0,0.0,255.0,0.0
13.850000000000055,35.72574682117035,51.275831043728715,1372.0007685339078,6.915489126413377e-05,-2.2833804337096808e-05,0.0,0.0,0.0,0.0,344.3220652173913,70.0,0.0,255.0,0.0
13.900000000000055,35.725750276036685,51.27582990831954,1372.0007685022429,6.915489132097719e-05,-2.2833804337096808e-05,0.0,5.684341886080801e-13,0.0,0.0,344.3132608695652,70.0,0.0,255.0,0.0
13.950000000000056,35.72575373090379,51.27582877291091,1372.0007684715092,6.915489132097719e-05,-2.2833804337096808e-05,0.0,-5.684341886080801e-13,-1.1368683772161603e-12,0.0,344.3044565217391,70.0,0.0,255.0,0.0
14.000000000000057,35.725757185771684,51.275827637502815,1372.0007684370503,6.915489126413377e-05,-2.2833804450783646e-05,0.0,0.0,0.0,0.0,344.295652173913,70.0,0.0,255.0,0.0
14.050000000000058,35.725760640640374,51.27582650209528,1372.0007684063166,6.915489132097719e-05,-2.2833804337096808e-05,0.0,5.684341886080801e-13,1.1368683772161603e-12,0.0,344.28684782608696,70.0,0.0,255.0,0.0
14.100000000000058,35.72576409550984,51.27582536668827,1372.0007683737203,6.915489132097719e-05,-2.2833804337096808e-05,0.0,0.0,0.0,0.0,344.2780434782609,70.0,0.0,255.0,0.0
14.150000000000059,35.7257675503801,51.27582423128181,1372.0007683420554,6.915489132097719e-05,-2.2833804337096808e-05,0.0,0.0,1.1368683772161603e-12,0.0,344.26923913043476,70.0,0.0,255.0,0.0
14.20000000000006,35.725771005251154,51.275823095875886,1372.0007683103904,6.915489132097719e-05,-2.283380422340997e-05,0.0,-5.684341886080801e-13,0.0,0.0,344.2604347826087,70.0,0.0,255.0,0.0
14.25000000000006,35.72577446012299,51.275821960470516,1372.0007682777941,6.915489126413377e-05,-2.2833804337096808e-05,0.0,0.0,-2.2737367544323206e-12,0.0,344.2516304347826,70.0,0.0,255.0,0.0
14.300000000000061,35.725777914995604,51.27582082506567,1372.0007682461292,6.915489132097719e-05,-2.2833804450783646e-05,0.0,0.0,0.0,0.0,344.2428260869565,70.0,0.0,255.0,0.0
14.350000000000062,35.72578136986902,51.275819689661375,1372.0007682144642,6.915489126413377e-05,-2.2833804337096808e-05,0.0,-5.684341886080801e-13,1.1368683772161603e-12,0.0,344.2340217391304,70.0,0.0,255.0,0.0
14.400000000000063,35.72578482474321,51.27581855425763,1372.0007681800053,6.915489126413377e-05,-2.2833804337096808e-05,0.0,5.684341886080801e-13,-1.1368683772161603e-12,0.0,344.22521739130434,70.0,0.0,255.0,0.0
14.450000000000063,35.7257882796182,51.275817418854416,1372.0007681483403,6.915489132097719e-05,-2.2833804450783646e-05,0.0,5.684341886080801e-13,0.0,0.0,344.21641304347827,70.0,0.0,255.0,0.0
14.500000000000064,35.72579173449397,51.275816283451746,1372.0007681138813,6.915489132097719e-05,-2.2833804337096808e-05,0.0,-5.684341886080801e-13,2.2737367544323206e-12,0.0,344.20760869565214,70.0,0.0,255.0,0.0
14.550000000000065,35.725795189370544,51.275815148049624,1372.000768081285,6.915489126413377e-05,-2.283380422340997e-05,0.0,0.0,0.0,0.0,344.19880434782607,70.0,0.0,255.0,0.0
14.600000000000065,35.72579864424789,51.27581401264803,1372.00076804962,6.915489132097719e-05,-2.2833804337096808e-05,0.0,5.684341886080801e-13,-2.2737367544323206e-12,0.0,344.19,70.0,0.0,255.0,0.0
14.650000000000066,35.72580209912603,51.27581287724698,1372.0007680160925,6.915489132097719e-05,-2.2833804450783646e-05,0.0,0.0,0.0,0.0,344.1811956521739,70.0,0.0,255.0,0.0
14.700000000000067,35.72580555400495,51.27581174184647,1372.0007679844275,6.915489132097719e-05,-2.2833804337096808e-05,0.0,0.0,1.1368683772161603e-12,0.0,344.1723913043478,70.0,0.0,255.0,0.0
14.750000000000068,35.72580900888467,51.275810606446505,1372.0007679509,6.915489132097719e-05,-2.2833804337096808e-05,0.0,-5.684341886080801e-13,-1.1368683772161603e-12,0.0,344.1635869565217,70.0,0.0,255.0,0.0
14.800000000000068,35.72581246376516,51.275809471047076,1372.0007679183036,6.915489126413377e-05,-2.2833804450783646e-05,0.0,0.0,0.0,0.0,344.15478260869565,70.0,0.0,255.0,0.0
14.850000000000069,35.72581591864646,51.275808335648186,1372.0007678829134,6.915489132097719e-05,-2.2833804337096808e-05,0.0,5.684341886080801e-13,2.2737367544323206e-12,0.0,344.1459782608695,70.0,0.0,255.0,0.0
14.90000000000007,35.72581937352854,51.275807200249844,1372.0007678521797,6.915489132097719e-05,-2.283380422340997e-05,0.0,-5.684341886080801e-13,0.0,0.0,344.13717391304345,70.0,0.0,255.0,0.0
14.95000000000007,35.72582282841141,51.275806064852034,1372.0007678177208,6.915489126413377e-05,-2.2833804337096808e-05,0.0,0.0,-1.1368683772161603e-12,0.0,344.1283695652174,70.0,0.0,255.0,0.0
15.000000000000071,35.725826283295056,51.275804929454765,1372.0007677851245,6.915489132097719e-05,-2.2833804337096808e-05,0.0,5.684341886080801e-13,0.0,0.0,344.1195652173913,70.0,0.0,255.0,0.0
15.050000000000072,35.725829738179506,51.27580379405804,1372.0007677515969,6.915489132097719e-05,-2.2833804337096808e-05,0.0,0.0,-1.1368683772161603e-12,0.0,344.1107608695652,70.0,0.0,255.0,0.0
15.100000000000072,35.72583319306474,51.27580265866185,1372.0007677190006,6.915489132097719e-05,-2.2833804450783646e-05,0.0,0.0,0.0,0.0,344.1019565217391,70.0,0.0,255.0,0.0
15.150000000000073,35.725836647950786,51.27580152326619,1372.0007676836103,6.915489132097719e-05,-2.2833804337096808e-05,0.0,-5.684341886080801e-13,1.1368683772161603e-12,0.0,344.09315217391304,70.0,0.0,255.0,0.0
15.200000000000074,35.72584010283757,51.275800387871094,1372.000767651014,6.915489126413377e-05,-2.2833804337096808e-05,0.0,0.0,0.0,0.0,344.08434782608697,70.0,0.0,255.0,0.0
15.250000000000075,35.72584355772519,51.27579925247651,1372.0007676146924,6.915489132097719e-05,-2.2833804337096808e-05,0.0,5.684341886080801e-13,0.0,0.0,344.07554347826084,70.0,0.0,255.0,0.0
15.300000000000075,35.72584701261356,51.27579811708248,1372.0007675830275,6.915489132097719e-05,-2.2833804337096808e-05,0.0,-5.684341886080801e-13,0.0,0.0,344.06673913043477,70.0,0.0,255.0,0.0
15.350000000000076,35.725850467502745,51.275796981688984,1372.0007675513625,6.915489126413377e-05,-2.2833804337096808e-05,0.0,0.0,0.0,0.0,344.0579347826087,70.0,0.0,255.0,0.0
15.400000000000077,35.72585392239272,51.275795846296035,1372.0007675159723,6.915489132097719e-05,-2.2833804337096808e-05,0.0,5.684341886080801e-13,0.0,0.0,344.04913043478257,70.0,0.0,255.0,0.0
15.450000000000077,35.72585737728348,51.27579471090361,1372.0007674796507,6.915489132097719e-05,-2.2833804337096808e-05,0.0,0.0,0.0,0.0,344.0403260869565,70.0,0.0,255.0,0.0
15.500000000000078,35.72586083217503,51.275793575511734,1372.0007674470544,6.915489132097719e-05,-2.2833804337096808e-05,0.0,0.0,-1.1368683772161603e-12,0.0,344.0315217391304,70.0,0.0,255.0,0.0
15.550000000000079,35.72586428706736,51.27579244012038,1372.0007674135268,6.915489132097719e-05,-2.2833804450783646e-05,0.0,-5.684341886080801e-13,0.0,0.0,344.02271739130435,70.0,0.0,255.0,0.0
15.60000000000008,35.72586774196048,51.27579130472958,1372.0007673790678,6.915489126413377e-05,-2.2833804337096808e-05,0.0,0.0,1.1368683772161603e-12,0.0,344.0139130434782,70.0,0.0,255.0,0.0
15.65000000000008,35.7258711968544,51.27579016933932,1372.0007673436776,6.915489132097719e-05,-2.2833804337096808e-05,0.0,5.684341886080801e-13,0.0,0.0,344.00510869565215,70.0,0.0,255.0,0.0
15.700000000000081,35.72587465174911,51.275789033949586,1372.00076731015,6.915489132097719e-05,-2.2833804337096808e-05,0.0,-5.684341886080801e-13,1.1368683772161603e-12,0.0,343.9963043478261,70.0,0.0,255.0,0.0
15.750000000000082,35.7258781066446,51.27578789856039,1372.0007672747597,6.915489126413377e-05,-2.283380422340997e-05,0.0,-5.684341886080801e-13,0.0,0.0,343.9875,70.0,0.0,255.0,0.0
15.800000000000082,35.72588156154088,51.275786763171745,1372.000767241232,6.915489126413377e-05,-2.2833804337096808e-05,0.0,5.684341886080801e-13,-2.2737367544323206e-12,0.0,343.9786956521739,70.0,0.0,255.0,0.0
15.850000000000083,35.72588501643795,51.27578562778363,1372.0007672067732,6.915489132097719e-05,-2.2833804450783646e-05,0.0,0.0,0.0,0.0,343.9698913043478,70.0,0.0,255.0,0.0
15.900000000000084,35.72588847133582,51.27578449239604,1372.000767171383,6.915489126413377e-05,-2.2833804337096808e-05,0.0,0.0,1.1368683772161603e-12,0.0,343.96108695652174,70.0,0.0,255.0,0.0
15.950000000000085,35.72589192623447,51.275783357009,1372.000767136924,6.915489132097719e-05,-2.2833804337096808e-05,0.0,5.684341886080801e-13,-1.1368683772161603e-12,0.0,343.9522826086956,70.0,0.0,255.0,0.0
16.000000000000085,35.72589538113392,51.27578222162249,1372.0007671015337,6.915489132097719e-05,-2.2833804450783646e-05,0.0,0.0,0.0,0.0,343.94347826086954,70.0,0.0,255.0,0.0
16.050000000000086,35.72589883603415,51.27578108623651,1372.0007670670748,6.915489132097719e-05,-2.2833804337096808e-05,0.0,0.0,2.2737367544323206e-12,0.0,343.93467391304347,70.0,0.0,255.0,0.0
16.100000000000087,35.72590229093518,51.27577995085109,1372.0007670326158,6.915489132097719e-05,-2.283380422340997e-05,0.0,-5.684341886080801e-13,0.0,0.0,343.9258695652174,70.0,0.0,255.0,0.0
16.150000000000087,35.72590574583698,51.27577881546618,1372.0007669972256,6.915489126413377e-05,-2.2833804337096808e-05,0.0,0.0,-1.1368683772161603e-12,0.0,343.91706521739127,70.0,0.0,255.0,0.0
16.200000000000088,35.725909200739586,51.27577768008182,1372.0007669627666,6.915489132097719e-05,-2.2833804337096808e-05,0.0,5.684341886080801e-13,0.0,0.0,343.9082608695652,70.0,0.0,255.0,0.0
16.25000000000009,35.725912655642986,51.275776544698,1372.000766926445,6.915489132097719e-05,-2.2833804337096808e-05,0.0,-5.684341886080801e-13,-1.1368683772161603e-12,0.0,343.8994565217391,70.0,0.0,255.0,0.0
16.30000000000009,35.72591611054718,51.2757754093147,1372.0007668910548,6.915489126413377e-05,-2.2833804450783646e-05,0.0,0.0,0.0,0.0,343.89065217391305,70.0,0.0,255.0,0.0
16.35000000000009,35.725919565452145,51.27577427393195,1372.0007668556646,6.915489132097719e-05,-2.2833804337096808e-05,0.0,5.684341886080801e-13,1.1368683772161603e-12,0.0,343.8818478260869,70.0,0.0,255.0,0.0
16.40000000000009,35.725923020357904,51.27577313854974,1372.0007668212056,6.915489132097719e-05,-2.2833804337096808e-05,0.0,0.0,0.0,0.0,343.87304347826085,70.0,0.0,255.0,0.0
16.45000000000009,35.72592647526447,51.275772003168036,1372.0007667858154,6.915489132097719e-05,-2.2833804337096808e-05,0.0,0.0,0.0,0.0,343.8642391304348,70.0,0.0,255.0,0.0
16.500000000000092,35.725929930171816,51.275770867786896,1372.0007667494938,6.915489132097719e-05,-2.2833804337096808e-05,0.0,-5.684341886080801e-13,0.0,0.0,343.85543478260865,70.0,0.0,255.0,0.0
16.550000000000093,35.72593338507995,51.27576973240628,1372.0007667141035,6.915489126413377e-05,-2.2833804337096808e-05,0.0,0.0,0.0,0.0,343.8466304347826,70.0,0.0,255.0,0.0
16.600000000000094,35.72593683998888,51.2757685970262,1372.000766677782,6.915489132097719e-05,-2.2833804337096808e-05,0.0,5.684341886080801e-13,-1.1368683772161603e-12,0.0,343.8378260869565,70.0,0.0,255.0,0.0
16.650000000000095,35.7259402948986,51.27576746164666,1372.0007666423917,6.915489132097719e-05,-2.2833804450783646e-05,0.0,-5.684341886080801e-13,0.0,0.0,343.82902173913044,70.0,0.0,255.0,0.0
16.700000000000095,35.72594374980911,51.27576632626764,1372.0007666079327,6.915489126413377e-05,-2.2833804337096808e-05,0.0,0.0,1.1368683772161603e-12,0.0,343.8202173913043,70.0,0.0,255.0,0.0
16.750000000000096,35.725947204720406,51.275765190889175,1372.0007665706798,6.915489132097719e-05,-2.2833804337096808e-05,0.0,5.684341886080801e-13,0.0,0.0,343.81141304347824,70.0,0.0,255.0,0.0
16.800000000000097,35.72595065963251,51.27576405551123,1372.0007665352896,6.915489132097719e-05,-2.2833804337096808e-05,0.0,0.0,0.0,0.0,343.80260869565217,70.0,0.0,255.0,0.0
16.850000000000097,35.72595411454539,51.27576292013381,1372.0007664998993,6.915489132097719e-05,-2.2833804337096808e-05,0.0,0.0,0.0,0.0,343.7938043478261,70.0,0.0,255.0,0.0
16.900000000000098,35.72595756945908,51.275761784756945,1372.0007664626464,6.915489132097719e-05,-2.2833804337096808e-05,0.0,-5.684341886080801e-13,0.0,0.0,343.78499999999997,70.0,0.0,255.0,0.0
16.9500000000001,35.725961024373525,51.27576064938061,1372.0007664253935,6.915489126413377e-05,-2.2833804337096808e-05,0.0,0.0,0.0,0.0,343.7761956521739,70.0,0.0,255.0,0.0
17.0000000000001,35.72596447928879,51.27575951400479,1372.000766389072,6.915489132097719e-05,-2.2833804337096808e-05,0.0,5.684341886080801e-13,0.0,0.0,343.7673913043478,70.0,0.0,255.0,0.0
17.0500000000001,35.72596793420483,51.275758378629526,1372.000766354613,6.915489132097719e-05,-2.2833804337096808e-05,0.0,-5.684341886080801e-13,-1.1368683772161603e-12,0.0,343.7585869565217,70.0,0.0,255.0,0.0
17.1000000000001,35.725971389121675,51.27575724325478,1372.00076631736,6.915489126413377e-05,-2.2833804450783646e-05,0.0,-5.684341886080801e-13,0.0,0.0,343.7497826086956,70.0,0.0,255.0,0.0
17.1500000000001,35.72597484403931,51.275756107880575,1372.0007662791759,6.915489126413377e-05,-2.2833804337096808e-05,0.0,5.684341886080801e-13,1.1368683772161603e-12,0.0,343.74097826086955,70.0,0.0,255.0,0.0
17.200000000000102,35.72597829895772,51.27575497250691,1372.0007662428543,6.915489132097719e-05,-2.2833804337096808e-05,0.0,0.0,0.0,0.0,343.7321739130435,70.0,0.0,255.0,0.0
17.250000000000103,35.72598175387695,51.27575383713376,1372.0007662056014,6.915489126413377e-05,-2.2833804337096808e-05,0.0,0.0,1.1368683772161603e-12,0.0,343.72336956521735,70.0,0.0,255.0,0.0
17.300000000000104,35.72598520879694,51.27575270176115,1372.0007661702111,6.915489132097719e-05,-2.283380422340997e-05,0.0,5.684341886080801e-13,0.0,0.0,343.7145652173913,70.0,0.0,255.0,0.0
17.350000000000104,35.72598866371775,51.27575156638908,1372.0007661329582,6.915489132097719e-05,-2.2833804337096808e-05,0.0,0.0,-2.2737367544323206e-12,0.0,343.7057608695652,70.0,0.0,255.0,0.0
17.400000000000105,35.72599211863933,51.275750431017535,1372.0007660966367,6.915489132097719e-05,-2.2833804450783646e-05,0.0,0.0,0.0,0.0,343.69695652173914,70.0,0.0,255.0,0.0
17.450000000000106,35.725995573561725,51.27574929564653,1372.0007660593837,6.915489132097719e-05,-2.2833804337096808e-05,0.0,-5.684341886080801e-13,1.1368683772161603e-12,0.0,343.688152173913,70.0,0.0,255.0,0.0
17.500000000000107,35.72599902848489,51.27574816027605,1372.0007660211995,6.915489126413377e-05,-2.2833804337096808e-05,0.0,0.0,-1.1368683772161603e-12,0.0,343.67934782608694,70.0,0.0,255.0,0.0
17.550000000000107,35.726002483408855,51.2757470249061,1372.0007659858093,6.915489132097719e-05,-2.2833804450783646e-05,0.0,5.684341886080801e-13,0.0,0.0,343.67054347826087,70.0,0.0,255.0,0.0
17.600000000000108,35.72600593833362,51.2757458895367,1372.000765947625,6.915489132097719e-05,-2.2833804337096808e-05,0.0,-5.684341886080801e-13,2.2737367544323206e-12,0.0,343.66173913043474,70.0,0.0,255.0,0.0
17.65000000000011,35.72600939325917,51.27574475416782,1372.0007659113035,6.915489126413377e-05,-2.283380422340997e-05,0.0,0.0,0.0,0.0,343.65293478260867,70.0,0.0,255.0,0.0
17.70000000000011,35.72601284818551,51.27574361879946,1372.0007658731192,6.915489132097719e-05,-2.2833804337096808e-05,0.0,5.684341886080801e-13,-1.1368683772161603e-12,0.0,343.6441304347826,70.0,0.0,255.0,0.0
17.75000000000011,35.72601630311265,51.27574248343164,1372.000765837729,6.915489132097719e-05,-2.2833804337096808e-05,0.0,0.0,0.0,0.0,343.6353260869565,70.0,0.0,255.0,0.0
17.80000000000011,35.72601975804058,51.27574134806435,1372.0007657986134,6.915489132097719e-05,-2.2833804337096808e-05,0.0,0.0,-1.1368683772161603e-12,0.0,343.6265217391304,70.0,0.0,255.0,0.0
17.85000000000011,35.7260232129693,51.275740212697585,1372.0007657613605,6.915489132097719e-05,-2.2833804450783646e-05,0.0,-5.684341886080801e-13,0.0,0.0,343.6177173913043,70.0,0.0,255.0,0.0
17.900000000000112,35.72602666789881,51.275739077331366,1372.000765725039,6.915489126413377e-05,-2.2833804337096808e-05,0.0,0.0,1.1368683772161603e-12,0.0,343.60891304347825,70.0,0.0,255.0,0.0
17.950000000000113,35.72603012282911,51.275737941965666,1372.0007656859234,6.915489132097719e-05,-2.2833804337096808e-05,0.0,5.684341886080801e-13,0.0,0.0,343.6001086956522,70.0,0.0,255.0,0.0
18.000000000000114,35.72603357776021,51.275736806600506,1372.0007656496018,6.915489132097719e-05,-2.2833804337096808e-05,0.0,-5.684341886080801e-13,0.0,0.0,343.59130434782605,70.0,0.0,255.0,0.0
18.050000000000114,35.7260370326921,51.275735671235864,1372.0007656114176,6.915489126413377e-05,-2.2833804337096808e-05,0.0,0.0,0.0,0.0,343.5825,70.0,0.0,255.0,0.0
18.100000000000115,35.72604048762478,51.27573453587176,1372.000765572302,6.915489132097719e-05,-2.2833804337096808e-05,0.0,5.684341886080801e-13,0.0,0.0,343.5736956521739,70.0,0.0,255.0,0.0
18.150000000000116,35.726043942558256,51.27573340050819,1372.0007655341178,6.915489132097719e-05,-2.2833804337096808e-05,0.0,0.0,0.0,0.0,343.5648913043478,70.0,0.0,255.0,0.0
18.200000000000117,35.72604739749252,51.275732265145145,1372.0007654959336,6.915489132097719e-05,-2.2833804337096808e-05,0.0,0.0,0.0,0.0,343.5560869565217,70.0,0.0,255.0,0.0
18.250000000000117,35.72605085242759,51.275731129782635,1372.0007654577494,6.915489132097719e-05,-2.2833804337096808e-05,0.0,-5.684341886080801e-13,-1.1368683772161603e-12,0.0,343.54728260869564,70.0,0.0,255.0,0.0
18.300000000000118,35.72605430736345,51.27572999442065,1372.0007654195651,6.915489126413377e-05,-2.2833804450783646e-05,0.0,0.0,0.0,0.0,343.53847826086957,70.0,0.0,255.0,0.0
18.35000000000012,35.72605776230009,51.275728859059186,1372.000765381381,6.915489132097719e-05,-2.2833804337096808e-05,0.0,5.684341886080801e-13,1.1368683772161603e-12,0.0,343.52967391304344,70.0,0.0,255.0,0.0
18.40000000000012,35.726061217237536,51.27572772369827,1372.000765344128,6.915489132097719e-05,-2.2833804337096808e-05,0.0,-5.684341886080801e-13,0.0,0.0,343.52086956521737,70.0,0.0,255.0,0.0
18.45000000000012,35.72606467217577,51.275726588337875,1372.0007653059438,6.915489126413377e-05,-2.2833804337096808e-05,0.0,0.0,0.0,0.0,343.5120652173913,70.0,0.0,255.0,0.0
18.50000000000012,35.72606812711479,51.275725452978,1372.0007652668282,6.915489132097719e-05,-2.2833804337096808e-05,0.0,5.684341886080801e-13,0.0,0.0,343.5032608695652,70.0,0.0,255.0,0.0
18.55000000000012,35.72607158205462,51.27572431761866,1372.0007652277127,6.915489132097719e-05,-2.2833804337096808e-05,0.0,-1.1368683772161603e-12,0.0,0.0,343.4944565217391,70.0,0.0,255.0,0.0
18.600000000000122,35.72607503699524,51.27572318225985,1372.0007651885971,6.915489120729035e-05,-2.2833804337096808e-05,0.0,0.0,-1.1368683772161603e-12,0.0,343.485652173913,70.0,0.0,255.0,0.0
18.650000000000123,35.72607849193663,51.27572204690158,1372.000765150413,6.915489132097719e-05,-2.2833804450783646e-05,0.0,1.1368683772161603e-12,0.0,0.0,343.47684782608695,70.0,0.0,255.0,0.0
18.700000000000124,35.726081946878836,51.275720911543814,1372.0007651112974,6.915489132097719e-05,-2.2833804337096808e-05,0.0,0.0,1.1368683772161603e-12,0.0,343.4680434782608,70.0,0.0,255.0,0.0
18.750000000000124,35.726085401821834,51.27571977618661,1372.0007650740445,6.915489132097719e-05,-2.2833804337096808e-05,0.0,0.0,0.0,0.0,343.45923913043475,70.0,0.0,255.0,0.0
18.800000000000125,35.72608885676563,51.27571864082991,1372.000765034929,6.915489132097719e-05,-2.2833804337096808e-05,0.0,-5.684341886080801e-13,1.1368683772161603e-12,0.0,343.4504347826087,70.0,0.0,255.0,0.0
18.850000000000126,35.726092311710204,51.27571750547374,1372.0007649958134,6.915489126413377e-05,-2.283380422340997e-05,0.0,0.0,0.0,0.0,343.4416304347826,70.0,0.0,255.0,0.0
18.900000000000126,35.72609576665558,51.2757163701181,1372.0007649576291,6.915489132097719e-05,-2.2833804337096808e-05,0.0,5.684341886080801e-13,-2.2737367544323206e-12,0.0,343.4328260869565,70.0,0.0,255.0,0.0
18.950000000000127,35.726099221601764,51.27571523476299,1372.0007649157196,6.915489132097719e-05,-2.2833804450783646e-05,0.0,-5.684341886080801e-13,0.0,0.0,343.4240217391304,70.0,0.0,255.0,0.0
19.000000000000128,35.72610267654872,51.27571409940841,1372.0007648775354,6.915489126413377e-05,-2.2833804337096808e-05,0.0,0.0,1.1368683772161603e-12,0.0,343.41521739130434,70.0,0.0,255.0,0.0
19.05000000000013,35.72610613149647,51.27571296405436,1372.0007648393512,6.915489132097719e-05,-2.2833804337096808e-05,0.0,5.684341886080801e-13,-1.1368683772161603e-12,0.0,343.40641304347827,70.0,0.0,255.0,0.0
19.10000000000013,35.72610958644503,51.27571182870082,1372.0007647974417,6.915489132097719e-05,-2.2833804450783646e-05,0.0,0.0,0.0,0.0,343.39760869565214,70.0,0.0,255.0,0.0
19.15000000000013,35.72611304139437,51.275710693347825,1372.0007647592574,6.915489132097719e-05,-2.2833804337096808e-05,0.0,0.0,2.2737367544323206e-12,0.0,343.38880434782607,70.0,0.0,255.0,0.0
19.20000000000013,35.726116496344524,51.27570955799534,1372.000764720142,6.915489132097719e-05,-2.283380422340997e-05,0.0,-5.684341886080801e-13,0.0,0.0,343.38,70.0,0.0,255.0,0.0
19.25000000000013,35.726119951295445,51.275708422643405,1372.000764680095,6.915489126413377e-05,-2.2833804337096808e-05,0.0,0.0,-1.1368683772161603e-12,0.0,343.37119565217387,70.0,0.0,255.0,0.0
19.300000000000132,35.72612340624718,51.27570728729197,1372.0007646409795,6.915489132097719e-05,-2.2833804337096808e-05,0.0,5.684341886080801e-13,0.0,0.0,343.3623913043478,70.0,0.0,255.0,0.0
19.350000000000133,35.7261268611997,51.275706151941094,1372.0007646000013,6.915489132097719e-05,-2.2833804337096808e-05,0.0,-5.684341886080801e-13,-1.1368683772161603e-12,0.0,343.3535869565217,70.0,0.0,255.0,0.0
19.400000000000134,35.72613031615303,51.27570501659071,1372.0007645627484,6.915489126413377e-05,-2.2833804450783646e-05,0.0,0.0,0.0,0.0,343.34478260869565,70.0,0.0,255.0,0.0
19.450000000000134,35.72613377110713,51.27570388124087,1372.0007645217702,6.915489132097719e-05,-2.2833804337096808e-05,0.0,5.684341886080801e-13,1.1368683772161603e-12,0.0,343.3359782608695,70.0,0.0,255.0,0.0
19.500000000000135,35.72613722606205,51.27570274589156,1372.0007644817233,6.915489132097719e-05,-2.2833804337096808e-05,0.0,0.0,0.0,0.0,343.32717391304345,70.0,0.0,255.0,0.0
19.550000000000136,35.726140681017746,51.27570161054277,1372.0007644416764,6.915489132097719e-05,-2.2833804337096808e-05,0.0,0.0,0.0,0.0,343.3183695652174,70.0,0.0,255.0,0.0
19.600000000000136,35.726144135974245,51.275700475194505,1372.0007644016296,6.915489132097719e-05,-2.2833804337096808e-05,0.0,-5.684341886080801e-13,0.0,0.0,343.3095652173913,70.0,0.0,255.0,0.0
19.650000000000137,35.72614759093153,51.27569933984678,1372.0007643615827,6.915489126413377e-05,-2.2833804337096808e-05,0.0,0.0,0.0,0.0,343.3007608695652,70.0,0.0,255.0,0.0
19.700000000000138,35.726151045889615,51.27569820449956,1372.0007643224671,6.915489132097719e-05,-2.2833804337096808e-05,0.0,5.684341886080801e-13,0.0,0.0,343.2919565217391,70.0,0.0,255.0,0.0
19.75000000000014,35.72615450084851,51.27569706915287,1372.0007642805576,6.915489132097719e-05,-2.2833804337096808e-05,0.0,-5.684341886080801e-13,0.0,0.0,343.28315217391304,70.0,0.0,255.0,0.0
19.80000000000014,35.72615795580818,51.27569593380671,1372.0007642395794,6.915489126413377e-05,-2.2833804337096808e-05,0.0,0.0,-1.1368683772161603e-12,0.0,343.2743478260869,70.0,0.0,255.0,0.0
19.85000000000014,35.726161410768654,51.275694798461075,1372.0007642013952,6.915489132097719e-05,-2.2833804450783646e-05,0.0,5.684341886080801e-13,0.0,0.0,343.26554347826084,70.0,0.0,255.0,0.0
19.90000000000014,35.72616486572992,51.275693663115966,1372.0007641594857,6.915489132097719e-05,-2.2833804337096808e-05,0.0,0.0,1.1368683772161603e-12,0.0,343.25673913043477,70.0,0.0,255.0,0.0
19.95000000000014,35.72616832069198,51.27569252777138,1372.0007641185075,6.915489132097719e-05,-2.2833804337096808e-05,0.0,0.0,0.0,0.0,343.2479347826087,70.0,0.0,255.0,0.0
20.000000000000142,35.72617177565484,51.27569139242732,1372.0007640784606,6.915489132097719e-05,-2.2833804337096808e-05,0.0,-1.1368683772161603e-12,1.1368683772161603e-12,0.0,343.23913043478257,70.0,0.0,255.0,0.0
20.050000000000143,35.7261752306185,51.27569025708378,1372.0007640365511,6.915489120729035e-05,-2.283380422340997e-05,0.0,0.0,0.0,0.0,343.2303260869565,70.0,0.0,255.0,0.0
20.100000000000144,35.726178685582944,51.275689121740776,1372.0007639974356,6.915489132097719e-05,-2.2833804337096808e-05,0.0,1.1368683772161603e-12,-2.2737367544323206e-12,0.0,343.2215217391304,70.0,0.0,255.0,0.0
20.150000000000144,35.72618214054818,51.275687986398275,1372.000763955526,6.915489132097719e-05,-2.2833804450783646e-05,0.0,-5.684341886080801e-13,0.0,0.0,343.2127173913043,70.0,0.0,255.0,0.0
20.200000000000145,35.72618559551422,51.275686851056314,1372.0007639154792,6.915489126413377e-05,-2.2833804337096808e-05,0.0,0.0,1.1368683772161603e-12,0.0,343.2039130434782,70.0,0.0,255.0,0.0
20.250000000000146,35.72618905048106,51.27568571571488,1372.0007638754323,6.915489132097719e-05,-2.2833804337096808e-05,0.0,5.684341886080801e-13,-1.1368683772161603e-12,0.0,343.19510869565215,70.0,0.0,255.0,0.0
20.300000000000146,35.72619250544869,51.27568458037396,1372.0007638344541,6.915489132097719e-05,-2.2833804450783646e-05,0.0,-5.684341886080801e-13,0.0,0.0,343.1863043478261,70.0,0.0,255.0,0.0
20.350000000000147,35.72619596041712,51.275683445033565,1372.000763790682,6.915489126413377e-05,-2.2833804337096808e-05,0.0,0.0,2.2737367544323206e-12,0.0,343.17749999999995,70.0,0.0,255.0,0.0
20.400000000000148,35.72619941538634,51.27568230969369,1372.000763750635,6.915489132097719e-05,-2.283380422340997e-05,0.0,5.684341886080801e-13,0.0,0.0,343.1686956521739,70.0,0.0,255.0,0.0
20.45000000000015,35.72620287035636,51.27568117435435,1372.0007637077942,6.915489132097719e-05,-2.2833804337096808e-05,0.0,0.0,-2.2737367544323206e-12,0.0,343.1598913043478,70.0,0.0,255.0,0.0
20.50000000000015,35.72620632532717,51.275680039015526,1372.0007636677474,6.915489132097719e-05,-2.2833804450783646e-05,0.0,0.0,0.0,0.0,343.15108695652174,70.0,0.0,255.0,0.0
20.55000000000015,35.72620978029878,51.27567890367722,1372.0007636277005,6.915489132097719e-05,-2.2833804337096808e-05,0.0,-5.684341886080801e-13,1.1368683772161603e-12,0.0,343.1422826086956,70.0,0.0,255.0,0.0
20.60000000000015,35.72621323527118,51.275677768339456,1372.0007635839283,6.915489126413377e-05,-2.2833804337096808e-05,0.0,0.0,-1.1368683772161603e-12,0.0,343.13347826086954,70.0,0.0,255.0,0.0
20.65000000000015,35.72621669024439,51.27567663300219,1372.0007635420188,6.915489132097719e-05,-2.2833804450783646e-05,0.0,5.684341886080801e-13,0.0,0.0,343.12467391304347,70.0,0.0,255.0,0.0
20.700000000000152,35.726220145218385,51.27567549766546,1372.0007635029033,6.915489132097719e-05,-2.2833804337096808e-05,0.0,-5.684341886080801e-13,2.2737367544323206e-12,0.0,343.11586956521734,70.0,0.0,255.0,0.0
20.750000000000153,35.726223600193194,51.27567436232925,1372.0007634591311,6.915489126413377e-05,-2.283380422340997e-05,0.0,0.0,0.0,0.0,343.10706521739127,70.0,0.0,255.0,0.0
20.800000000000153,35.72622705516878,51.27567322699357,1372.0007634172216,6.915489132097719e-05,-2.2833804337096808e-05,0.0,5.684341886080801e-13,-1.1368683772161603e-12,0.0,343.0982608695652,70.0,0.0,255.0,0.0
20.850000000000154,35.726230510145164,51.2756720916584,1372.0007633762434,6.915489132097719e-05,-2.2833804337096808e-05,0.0,0.0,0.0,0.0,343.0894565217391,70.0,0.0,255.0,0.0
20.900000000000155,35.72623396512234,51.27567095632376,1372.000763334334,6.915489132097719e-05,-2.2833804337096808e-05,0.0,0.0,-1.1368683772161603e-12,0.0,343.080652173913,70.0,0.0,255.0,0.0
20.950000000000156,35.72623742010033,51.275669820989634,1372.0007632924244,6.915489132097719e-05,-2.2833804450783646e-05,0.0,-5.684341886080801e-13,0.0,0.0,343.0718478260869,70.0,0.0,255.0,0.0
21.000000000000156,35.72624087507911,51.275668685656036,1372.0007632495835,6.915489126413377e-05,-2.2833804337096808e-05,0.0,0.0,1.1368683772161603e-12,0.0,343.06304347826085,70.0,0.0,255.0,0.0
21.050000000000157,35.726244330058684,51.27566755032296,1372.0007632086053,6.915489132097719e-05,-2.2833804337096808e-05,0.0,5.684341886080801e-13,0.0,0.0,343.0542391304348,70.0,0.0,255.0,0.0
21.100000000000158,35.72624778503905,51.275666414990404,1372.0007631639019,6.915489132097719e-05,-2.2833804337096808e-05,0.0,-5.684341886080801e-13,0.0,0.0,343.04543478260865,70.0,0.0,255.0,0.0
21.15000000000016,35.726251240020225,51.27566527965836,1372.0007631247863,6.915489126413377e-05,-2.2833804337096808e-05,0.0,0.0,0.0,0.0,343.0366304347826,70.0,0.0,255.0,0.0
21.20000000000016,35.72625469500219,51.27566414432685,1372.0007630810142,6.915489132097719e-05,-2.2833804337096808e-05,0.0,5.684341886080801e-13,0.0,0.0,343.0278260869565,70.0,0.0,255.0,0.0
21.25000000000016,35.72625814998495,51.27566300899586,1372.0007630381733,6.915489132097719e-05,-2.2833804337096808e-05,0.0,0.0,0.0,0.0,343.0190217391304,70.0,0.0,255.0,0.0
21.30000000000016,35.7262616049685,51.27566187366537,1372.0007629962638,6.915489132097719e-05,-2.2833804337096808e-05,0.0,0.0,0.0,0.0,343.0102173913043,70.0,0.0,255.0,0.0
21.35000000000016,35.726265059952865,51.27566073833543,1372.0007629524916,6.915489132097719e-05,-2.2833804337096808e-05,0.0,-5.684341886080801e-13,-1.1368683772161603e-12,0.0,343.00141304347824,70.0,0.0,255.0,0.0
21.400000000000162,35.72626851493801,51.27565960300599,1372.0007629105821,6.915489126413377e-05,-2.2833804450783646e-05,0.0,0.0,0.0,0.0,342.99260869565217,70.0,0.0,255.0,0.0
21.450000000000163,35.72627196992396,51.27565846767709,1372.00076286681,6.915489132097719e-05,-2.2833804337096808e-05,0.0,0.0,1.1368683772161603e-12,0.0,342.98380434782604,70.0,0.0,255.0,0.0
21.500000000000163,35.72627542491071,51.2756573323487,1372.0007628239691,6.915489126413377e-05,-2.2833804337096808e-05,0.0,-5.684341886080801e-13,0.0,0.0,342.97499999999997,70.0,0.0,255.0,0.0
21.550000000000164,35.726278879898246,51.27565619702083,1372.000762780197,6.915489126413377e-05,-2.2833804337096808e-05,0.0,5.684341886080801e-13,1.1368683772161603e-12,0.0,342.9661956521739,70.0,0.0,255.0,0.0
21.600000000000165,35.72628233488659,51.27565506169347,1372.00076274015,6.915489132097719e-05,-2.283380422340997e-05,0.0,5.684341886080801e-13,0.0,0.0,342.9573913043478,70.0,0.0,255.0,0.0
21.650000000000166,35.726285789875725,51.275653926366644,1372.0007626954466,6.915489132097719e-05,-2.2833804337096808e-05,0.0,-5.684341886080801e-13,-2.2737367544323206e-12,0.0,342.9485869565217,70.0,0.0,255.0,0.0
21.700000000000166,35.72628924486566,51.27565279104033,1372.0007626516744,6.915489126413377e-05,-2.2833804450783646e-05,0.0,0.0,0.0,0.0,342.9397826086956,70.0,0.0,255.0,0.0
21.750000000000167,35.7262926998564,51.27565165571453,1372.000762609765,6.915489132097719e-05,-2.2833804337096808e-05,0.0,5.684341886080801e-13,1.1368683772161603e-12,0.0,342.93097826086955,70.0,0.0,255.0,0.0
21.800000000000168,35.72629615484794,51.27565052038927,1372.0007625659928,6.915489132097719e-05,-2.2833804337096808e-05,0.0,0.0,-1.1368683772161603e-12,0.0,342.9221739130434,70.0,0.0,255.0,0.0
21.85000000000017,35.72629960984027,51.27564938506451,1372.000762523152,6.915489132097719e-05,-2.2833804450783646e-05,0.0,0.0,0.0,0.0,342.91336956521735,70.0,0.0,255.0,0.0
21.90000000000017,35.726303064833395,51.27564824974028,1372.0007624784485,6.915489132097719e-05,-2.2833804337096808e-05,0.0,-5.684341886080801e-13,2.2737367544323206e-12,0.0,342.9045652173913,70.0,0.0,255.0,0.0
21.95000000000017,35.726306519827304,51.275647114416564,1372.0007624356076,6.915489126413377e-05,-2.283380422340997e-05,0.0,0.0,0.0,0.0,342.8957608695652,70.0,0.0,255.0,0.0
22.00000000000017,35.72630997482205,51.275645979093355,1372.0007623927668,6.915489132097719e-05,-2.2833804337096808e-05,0.0,5.684341886080801e-13,-1.1368683772161603e-12,0.0,342.8869565217391,70.0,0.0,255.0,0.0
22.05000000000017,35.72631342981756,51.27564484377068,1372.0007623489946,6.915489132097719e-05,-2.2833804337096808e-05,0.0,-5.684341886080801e-13,0.0,0.0,342.878152173913,70.0,0.0,255.0,0.0
22.100000000000172,35.726316884813876,51.27564370844852,1372.0007623061538,6.915489126413377e-05,-2.2833804337096808e-05,0.0,0.0,-1.1368683772161603e-12,0.0,342.86934782608694,70.0,0.0,255.0,0.0
22.150000000000173,35.72632033981098,51.27564257312688,1372.0007622614503,6.915489132097719e-05,-2.2833804450783646e-05,0.0,5.684341886080801e-13,-1.1368683772161603e-12,0.0,342.86054347826087,70.0,0.0,255.0,0.0
22.200000000000173,35.726323794808906,51.275641437805746,1372.0007622176781,6.915489132097719e-05,-2.2833804450783646e-05,0.0,0.0,1.1368683772161603e-12,0.0,342.85173913043474,70.0,0.0,255.0,0.0
22.250000000000174,35.72632724980763,51.275640302485144,1372.0007621729746,6.915489132097719e-05,-2.2833804337096808e-05,0.0,0.0,2.2737367544323206e-12,0.0,342.84293478260867,70.0,0.0,255.0,0.0
22.300000000000175,35.72633070480713,51.27563916716505,1372.0007621301338,6.915489132097719e-05,-2.283380422340997e-05,0.0,-5.684341886080801e-13,0.0,0.0,342.8341304347826,70.0,0.0,255.0,0.0
22.350000000000176,35.72633415980744,51.27563803184549,1372.000762084499,6.915489126413377e-05,-2.2833804337096808e-05,0.0,0.0,-1.1368683772161603e-12,0.0,342.82532608695647,70.0,0.0,255.0,0.0
22.400000000000176,35.72633761480855,51.27563689652643,1372.0007620425895,6.915489132097719e-05,-2.2833804337096808e-05,0.0,5.684341886080801e-13,0.0,0.0,342.8165217391304,70.0,0.0,255.0,0.0
22.450000000000177,35.726341069810466,51.2756357612079,1372.0007619969547,6.915489132097719e-05,-2.2833804337096808e-05,0.0,-5.684341886080801e-13,-1.1368683772161603e-12,0.0,342.8077173913043,70.0,0.0,255.0,0.0
22.500000000000178,35.72634452481318,51.275634625889886,1372.0007619531825,6.915489126413377e-05,-2.2833804450783646e-05,0.0,0.0,0.0,0.0,342.79891304347825,70.0,0.0,255.0,0.0
22.55000000000018,35.72634797981667,51.275633490572375,1372.000761908479,6.915489132097719e-05,-2.2833804337096808e-05,0.0,5.684341886080801e-13,1.1368683772161603e-12,0.0,342.7901086956521,70.0,0.0,255.0,0.0
22.60000000000018,35.726351434820984,51.27563235525538,1372.0007618628442,6.915489132097719e-05,-2.2833804337096808e-05,0.0,0.0,0.0,0.0,342.78130434782605,70.0,0.0,255.0,0.0
22.65000000000018,35.72635488982608,51.275631219938916,1372.0007618200034,6.915489132097719e-05,-2.2833804337096808e-05,0.0,0.0,0.0,0.0,342.7725,70.0,0.0,255.0,0.0
22.70000000000018,35.72635834483198,51.275630084622975,1372.0007617743686,6.915489132097719e-05,-2.2833804337096808e-05,0.0,-5.684341886080801e-13,0.0,0.0,342.7636956521739,70.0,0.0,255.0,0.0
22.75000000000018,35.72636179983867,51.27562894930753,1372.0007617305964,6.915489126413377e-05,-2.2833804337096808e-05,0.0,0.0,0.0,0.0,342.7548913043478,70.0,0.0,255.0,0.0
22.800000000000182,35.72636525484617,51.275627813992614,1372.0007616849616,6.915489132097719e-05,-2.2833804337096808e-05,0.0,5.684341886080801e-13,0.0,0.0,342.7460869565217,70.0,0.0,255.0,0.0
22.850000000000183,35.726368709854476,51.27562667867821,1372.0007616402581,6.915489132097719e-05,-2.2833804337096808e-05,0.0,-5.684341886080801e-13,0.0,0.0,342.73728260869564,70.0,0.0,255.0,0.0
22.900000000000183,35.72637216486356,51.27562554336433,1372.000761596486,6.915489126413377e-05,-2.2833804337096808e-05,0.0,-5.684341886080801e-13,-1.1368683772161603e-12,0.0,342.7284782608695,70.0,0.0,255.0,0.0
22.950000000000184,35.726375619873465,51.275624408050945,1372.0007615499198,6.915489126413377e-05,-2.2833804450783646e-05,0.0,5.684341886080801e-13,0.0,0.0,342.71967391304344,70.0,0.0,255.0,0.0
23.000000000000185,35.72637907488416,51.27562327273809,1372.000761507079,6.915489132097719e-05,-2.2833804337096808e-05,0.0,0.0,1.1368683772161603e-12,0.0,342.71086956521737,70.0,0.0,255.0,0.0
23.050000000000185,35.72638252989565,51.27562213742575,1372.0007614614442,6.915489126413377e-05,-2.2833804337096808e-05,0.0,0.0,0.0,0.0,342.7020652173913,70.0,0.0,255.0,0.0
23.100000000000186,35.726385984907935,51.27562100211393,1372.0007614158094,6.915489132097719e-05,-2.2833804337096808e-05,0.0,5.684341886080801e-13,1.1368683772161603e-12,0.0,342.69326086956517,70.0,0.0,255.0,0.0
23.150000000000187,35.726389439921036,51.27561986680262,1372.000761371106,6.915489132097719e-05,-2.283380422340997e-05,0.0,0.0,0.0,0.0,342.6844565217391,70.0,0.0,255.0,0.0
23.200000000000188,35.72639289493492,51.275618731491825,1372.0007613245398,6.915489132097719e-05,-2.2833804337096808e-05,0.0,0.0,-2.2737367544323206e-12,0.0,342.675652173913,70.0,0.0,255.0,0.0
23.25000000000019,35.72639634994962,51.27561759618154,1372.0007612798363,6.915489132097719e-05,-2.2833804450783646e-05,0.0,-5.684341886080801e-13,0.0,0.0,342.66684782608695,70.0,0.0,255.0,0.0
23.30000000000019,35.72639980496511,51.275616460871774,1372.0007612342015,6.915489126413377e-05,-2.2833804337096808e-05,0.0,0.0,1.1368683772161603e-12,0.0,342.6580434782608,70.0,0.0,255.0,0.0
23.35000000000019,35.726403259981396,51.27561532556253,1372.0007611885667,6.915489132097719e-05,-2.2833804337096808e-05,0.0,5.684341886080801e-13,-1.1368683772161603e-12,0.0,342.64923913043475,70.0,0.0,255.0,0.0
23.40000000000019,35.72640671499849,51.27561419025379,1372.0007611438632,6.915489132097719e-05,-2.2833804450783646e-05,0.0,-5.684341886080801e-13,0.0,0.0,342.6404347826087,70.0,0.0,255.0,0.0
23.45000000000019,35.72641017001638,51.27561305494556,1372.0007610982284,6.915489126413377e-05,-2.2833804337096808e-05,0.0,0.0,2.2737367544323206e-12,0.0,342.63163043478255,70.0,0.0,255.0,0.0
23.500000000000192,35.726413625035065,51.27561191963786,1372.0007610516623,6.915489132097719e-05,-2.283380422340997e-05,0.0,5.684341886080801e-13,0.0,0.0,342.6228260869565,70.0,0.0,255.0,0.0
23.550000000000193,35.72641708005456,51.27561078433066,1372.0007610050961,6.915489132097719e-05,-2.2833804337096808e-05,0.0,0.0,-1.1368683772161603e-12,0.0,342.6140217391304,70.0,0.0,255.0,0.0
23.600000000000193,35.72642053507486,51.275609649023984,1372.000760961324,6.915489132097719e-05,-2.2833804337096808e-05,0.0,0.0,0.0,0.0,342.60521739130434,70.0,0.0,255.0,0.0
23.650000000000194,35.726423990095945,51.27560851371783,1372.0007609147578,6.915489132097719e-05,-2.2833804337096808e-05,0.0,-5.684341886080801e-13,-1.1368683772161603e-12,0.0,342.5964130434782,70.0,0.0,255.0,0.0
23.700000000000195,35.72642744511783,51.27560737841217,1372.000760869123,6.915489126413377e-05,-2.2833804450783646e-05,0.0,0.0,0.0,0.0,342.58760869565214,70.0,0.0,255.0,0.0
23.750000000000195,35.726430900140514,51.275606243107035,1372.000760822557,6.915489132097719e-05,-2.2833804337096808e-05,0.0,5.684341886080801e-13,1.1368683772161603e-12,0.0,342.57880434782606,70.0,0.0,255.0,0.0
23.800000000000196,35.726434355164,51.275605107802406,1372.0007607759908,6.915489132097719e-05,-2.2833804337096808e-05,0.0,-5.684341886080801e-13,0.0,0.0,342.57,70.0,0.0,255.0,0.0
23.850000000000197,35.72643781018831,51.275603972498295,1372.000760730356,6.915489126413377e-05,-2.2833804337096808e-05,0.0,0.0,0.0,0.0,342.56119565217386,70.0,0.0,255.0,0.0
23.900000000000198,35.72644126521339,51.27560283719468,1372.0007606828585,6.915489132097719e-05,-2.2833804337096808e-05,0.0,5.684341886080801e-13,0.0,0.0,342.5523913043478,70.0,0.0,255.0,0.0
23.9500000000002,35.72644472023929,51.27560170189161,1372.0007606362924,6.915489132097719e-05,-2.2833804337096808e-05,0.0,0.0,0.0,0.0,342.5435869565217,70.0,0.0,255.0,0.0
24.0000000000002,35.72644817526597,51.27560056658903,1372.0007605897263,6.915489132097719e-05,-2.2833804337096808e-05,0.0,0.0,-1.1368683772161603e-12,0.0,342.5347826086956,70.0,0.0,255.0,0.0
24.0500000000002,35.72645163029347,51.27559943128697,1372.0007605440915,6.915489132097719e-05,-2.2833804450783646e-05,0.0,-5.684341886080801e-13,0.0,0.0,342.5259782608695,70.0,0.0,255.0,0.0
24.1000000000002,35.72645508532175,51.27559829598542,1372.000760499388,6.915489126413377e-05,-2.2833804337096808e-05,0.0,0.0,1.1368683772161603e-12,0.0,342.51717391304345,70.0,0.0,255.0,0.0
24.1500000000002,35.726458540350855,51.275597160684384,1372.0007604518905,6.915489132097719e-05,-2.2833804337096808e-05,0.0,5.684341886080801e-13,0.0,0.0,342.5083695652174,70.0,0.0,255.0,0.0
24.200000000000202,35.72646199538075,51.275596025383855,1372.0007604053244,6.915489132097719e-05,-2.2833804337096808e-05,0.0,-5.684341886080801e-13,0.0,0.0,342.49956521739125,70.0,0.0,255.0,0.0
24.250000000000203,35.726465450411446,51.275594890083845,1372.0007603596896,6.915489126413377e-05,-2.2833804337096808e-05,0.0,0.0,0.0,0.0,342.4907608695652,70.0,0.0,255.0,0.0
24.300000000000203,35.726468905442935,51.27559375478433,1372.0007603112608,6.915489132097719e-05,-2.2833804337096808e-05,0.0,5.684341886080801e-13,0.0,0.0,342.4819565217391,70.0,0.0,255.0,0.0
24.350000000000204,35.72647236047524,51.275592619485344,1372.0007602637634,6.915489132097719e-05,-2.2833804337096808e-05,0.0,-1.1368683772161603e-12,0.0,0.0,342.47315217391304,70.0,0.0,255.0,0.0
24.400000000000205,35.72647581550834,51.27559148418686,1372.0007602171972,6.915489120729035e-05,-2.2833804337096808e-05,0.0,0.0,0.0,0.0,342.4643478260869,70.0,0.0,255.0,0.0
24.450000000000205,35.72647927054223,51.275590348888905,1372.000760170631,6.915489132097719e-05,-2.2833804337096808e-05,0.0,1.1368683772161603e-12,-1.1368683772161603e-12,0.0,342.45554347826084,70.0,0.0,255.0,0.0
24.500000000000206,35.726482725576936,51.27558921359144,1372.000760124065,6.915489132097719e-05,-2.2833804450783646e-05,0.0,0.0,0.0,0.0,342.44673913043476,70.0,0.0,255.0,0.0
24.550000000000207,35.72648618061244,51.2755880782945,1372.0007600747049,6.915489132097719e-05,-2.2833804337096808e-05,0.0,0.0,1.1368683772161603e-12,0.0,342.43793478260864,70.0,0.0,255.0,0.0
24.600000000000207,35.72648963564874,51.27558694299807,1372.0007600281388,6.915489132097719e-05,-2.2833804337096808e-05,0.0,-5.684341886080801e-13,0.0,0.0,342.42913043478256,70.0,0.0,255.0,0.0
24.650000000000208,35.72649309068584,51.275585807702136,1372.0007599806413,6.915489126413377e-05,-2.2833804337096808e-05,0.0,0.0,1.1368683772161603e-12,0.0,342.4203260869565,70.0,0.0,255.0,0.0
24.70000000000021,35.72649654572375,51.27558467240672,1372.0007599331439,6.915489132097719e-05,-2.283380422340997e-05,0.0,5.684341886080801e-13,0.0,0.0,342.4115217391304,70.0,0.0,255.0,0.0
24.75000000000021,35.72650000076246,51.27558353711182,1372.0007598856464,6.915489132097719e-05,-2.2833804337096808e-05,0.0,-5.684341886080801e-13,-2.2737367544323206e-12,0.0,342.4027173913043,70.0,0.0,255.0,0.0
24.80000000000021,35.72650345580196,51.275582401817424,1372.0007598390803,6.915489126413377e-05,-2.2833804450783646e-05,0.0,0.0,0.0,0.0,342.3939130434782,70.0,0.0,255.0,0.0
24.85000000000021,35.72650691084227,51.27558126652354,1372.0007597906515,6.915489132097719e-05,-2.2833804337096808e-05,0.0,5.684341886080801e-13,1.1368683772161603e-12,0.0,342.38510869565215,70.0,0.0,255.0,0.0
24.90000000000021,35.726510365883385,51.27558013123018,1372.0007597422227,6.915489132097719e-05,-2.2833804337096808e-05,0.0,0.0,-1.1368683772161603e-12,0.0,342.3763043478261,70.0,0.0,255.0,0.0
24.950000000000212,35.72651382092529,51.275578995937316,1372.0007596947253,6.915489132097719e-05,-2.2833804450783646e-05,0.0,0.0,0.0,0.0,342.36749999999995,70.0,0.0,255.0,0.0
25.000000000000213,35.726517275968014,51.27557786064496,1372.0007596472278,6.915489132097719e-05,-2.2833804337096808e-05,0.0,-5.684341886080801e-13,2.2737367544323206e-12,0.0,342.3586956521739,70.0,0.0,255.0,0.0
25.050000000000214,35.726520731011526,51.27557672535312,1372.000759598799,6.915489126413377e-05,-2.283380422340997e-05,0.0,0.0,0.0,0.0,342.3498913043478,70.0,0.0,255.0,0.0
25.100000000000215,35.72652418605586,51.275575590061784,1372.000759552233,6.915489132097719e-05,-2.2833804337096808e-05,0.0,5.684341886080801e-13,-1.1368683772161603e-12,0.0,342.3410869565217,70.0,0.0,255.0,0.0
25.150000000000215,35.72652764110097,51.275574454770954,1372.0007595038041,6.915489132097719e-05,-2.2833804337096808e-05,0.0,-5.684341886080801e-13,0.0,0.0,342.3322826086956,70.0,0.0,255.0,0.0
25.200000000000216,35.72653109614691,51.27557331948065,1372.000759454444,6.915489126413377e-05,-2.2833804337096808e-05,0.0,0.0,-1.1368683772161603e-12,0.0,342.32347826086954,70.0,0.0,255.0,0.0
25.250000000000217,35.72653455119362,51.275572184190835,1372.000759407878,6.915489132097719e-05,-2.2833804450783646e-05,0.0,5.684341886080801e-13,0.0,0.0,342.31467391304346,70.0,0.0,255.0,0.0
25.300000000000217,35.72653800624114,51.27557104890153,1372.0007593575865,6.915489132097719e-05,-2.2833804337096808e-05,0.0,0.0,1.1368683772161603e-12,0.0,342.30586956521734,70.0,0.0,255.0,0.0
25.350000000000218,35.726541461289465,51.27556991361274,1372.0007593110204,6.915489132097719e-05,-2.2833804337096808e-05,0.0,0.0,0.0,0.0,342.29706521739126,70.0,0.0,255.0,0.0
25.40000000000022,35.726544916338604,51.27556877832447,1372.000759263523,6.915489132097719e-05,-2.2833804337096808e-05,0.0,-5.684341886080801e-13,0.0,0.0,342.2882608695652,70.0,0.0,255.0,0.0
25.45000000000022,35.72654837138853,51.27556764303668,1372.0007592141628,6.915489126413377e-05,-2.2833804337096808e-05,0.0,0.0,0.0,0.0,342.2794565217391,70.0,0.0,255.0,0.0
25.50000000000022,35.72655182643928,51.275566507749424,1372.000759165734,6.915489132097719e-05,-2.2833804337096808e-05,0.0,5.684341886080801e-13,0.0,0.0,342.270652173913,70.0,0.0,255.0,0.0
25.55000000000022,35.72655528149082,51.27556537246266,1372.000759116374,6.915489132097719e-05,-2.2833804337096808e-05,0.0,-5.684341886080801e-13,0.0,0.0,342.2618478260869,70.0,0.0,255.0,0.0
25.60000000000022,35.72655873654317,51.27556423717641,1372.0007590679452,6.915489126413377e-05,-2.2833804337096808e-05,0.0,0.0,0.0,0.0,342.25304347826085,70.0,0.0,255.0,0.0
25.650000000000222,35.72656219159631,51.275563101890675,1372.0007590195164,6.915489132097719e-05,-2.2833804337096808e-05,0.0,5.684341886080801e-13,-1.1368683772161603e-12,0.0,342.2442391304347,70.0,0.0,255.0,0.0
25.700000000000223,35.72656564665025,51.275561966605444,1372.0007589710876,6.915489132097719e-05,-2.2833804450783646e-05,0.0,0.0,0.0,0.0,342.23543478260865,70.0,0.0,255.0,0.0
25.750000000000224,35.726569101705,51.27556083132071,1372.0007589207962,6.915489132097719e-05,-2.2833804337096808e-05,0.0,0.0,1.1368683772161603e-12,0.0,342.2266304347826,70.0,0.0,255.0,0.0
25.800000000000225,35.72657255676055,51.275559696036495,1372.0007588714361,6.915489132097719e-05,-2.2833804337096808e-05,0.0,-1.1368683772161603e-12,0.0,0.0,342.2178260869565,70.0,0.0,255.0,0.0
25.850000000000225,35.7265760118169,51.27555856075278,1372.0007588230073,6.915489120729035e-05,-2.2833804337096808e-05,0.0,0.0,1.1368683772161603e-12,0.0,342.2090217391304,70.0,0.0,255.0,0.0
25.900000000000226,35.72657946687406,51.27555742546958,1372.0007587736472,6.915489132097719e-05,-2.283380422340997e-05,0.0,1.1368683772161603e-12,0.0,0.0,342.2002173913043,70.0,0.0,255.0,0.0
25.950000000000227,35.726582921932014,51.27555629018688,1372.0007587242872,6.915489132097719e-05,-2.2833804337096808e-05,0.0,-5.684341886080801e-13,-2.2737367544323206e-12,0.0,342.19141304347824,70.0,0.0,255.0,0.0
26.000000000000227,35.72658637699078,51.27555515490468,1372.000758674927,6.915489126413377e-05,-2.2833804450783646e-05,0.0,0.0,-1.1368683772161603e-12,0.0,342.18260869565216,70.0,0.0,255.0,0.0
26.050000000000228,35.726589832050344,51.275554019623,1372.0007586264983,6.915489132097719e-05,-2.2833804450783646e-05,0.0,5.684341886080801e-13,1.1368683772161603e-12,0.0,342.17380434782604,70.0,0.0,255.0,0.0
26.10000000000023,35.726593287110724,51.27555288434181,1372.0007585771382,6.915489132097719e-05,-2.2833804337096808e-05,0.0,-5.684341886080801e-13,1.1368683772161603e-12,0.0,342.16499999999996,70.0,0.0,255.0,0.0
26.15000000000023,35.7265967421719,51.27555174906116,1372.0007585268468,6.915489126413377e-05,-2.2833804337096808e-05,0.0,0.0,0.0,0.0,342.1561956521739,70.0,0.0,255.0,0.0
26.20000000000023,35.72660019723387,51.27555061378097,1372.0007584774867,6.915489132097719e-05,-2.2833804337096808e-05,0.0,5.684341886080801e-13,1.1368683772161603e-12,0.0,342.14739130434776,70.0,0.0,255.0,0.0
26.25000000000023,35.72660365229665,51.275549478501304,1372.0007584281266,6.915489132097719e-05,-2.283380422340997e-05,0.0,0.0,0.0,0.0,342.1385869565217,70.0,0.0,255.0,0.0
26.30000000000023,35.72660710736024,51.27554834322216,1372.0007583787665,6.915489132097719e-05,-2.2833804337096808e-05,0.0,0.0,-2.2737367544323206e-12,0.0,342.1297826086956,70.0,0.0,255.0,0.0
26.350000000000232,35.726610562424625,51.27554720794351,1372.000758328475,6.915489132097719e-05,-2.2833804450783646e-05,0.0,-5.684341886080801e-13,0.0,0.0,342.12097826086955,70.0,0.0,255.0,0.0
26.400000000000233,35.7266140174898,51.27554607266536,1372.000758279115,6.915489126413377e-05,-2.2833804337096808e-05,0.0,0.0,1.1368683772161603e-12,0.0,342.1121739130434,70.0,0.0,255.0,0.0
26.450000000000234,35.72661747255581,51.27554493738773,1372.0007582278922,6.915489132097719e-05,-2.2833804337096808e-05,0.0,5.684341886080801e-13,-1.1368683772161603e-12,0.0,342.10336956521735,70.0,0.0,255.0,0.0
26.500000000000234,35.7266209276226,51.27554380211059,1372.0007581794634,6.915489132097719e-05,-2.2833804450783646e-05,0.0,-5.684341886080801e-13,0.0,0.0,342.0945652173913,70.0,0.0,255.0,0.0
26.550000000000235,35.726624382690204,51.27554266683396,1372.0007581282407,6.915489126413377e-05,-2.2833804337096808e-05,0.0,0.0,2.2737367544323206e-12,0.0,342.0857608695652,70.0,0.0,255.0,0.0
26.600000000000236,35.72662783775861,51.275541531557835,1372.000758079812,6.915489132097719e-05,-2.283380422340997e-05,0.0,5.684341886080801e-13,0.0,0.0,342.0769565217391,70.0,0.0,255.0,0.0
26.650000000000237,35.72663129282782,51.27554039628222,1372.0007580276579,6.915489132097719e-05,-2.2833804337096808e-05,0.0,0.0,-1.1368683772161603e-12,0.0,342.068152173913,70.0,0.0,255.0,0.0
26.700000000000237,35.72663474789783,51.27553926100709,1372.0007579782978,6.915489132097719e-05,-2.2833804337096808e-05,0.0,0.0,0.0,0.0,342.05934782608693,70.0,0.0,255.0,0.0
26.750000000000238,35.72663820296865,51.27553812573249,1372.0007579280064,6.915489132097719e-05,-2.2833804337096808e-05,0.0,-5.684341886080801e-13,-1.1368683772161603e-12,0.0,342.0505434782608,70.0,0.0,255.0,0.0
26.80000000000024,35.726641658040265,51.27553699045837,1372.0007578767836,6.915489126413377e-05,-2.2833804450783646e-05,0.0,0.0,0.0,0.0,342.04173913043473,70.0,0.0,255.0,0.0
26.85000000000024,35.7266451131127,51.27553585518477,1372.0007578264922,6.915489132097719e-05,-2.2833804337096808e-05,0.0,5.684341886080801e-13,1.1368683772161603e-12,0.0,342.03293478260866,70.0,0.0,255.0,0.0
26.90000000000024,35.72664856818593,51.275534719911676,1372.0007577762008,6.915489132097719e-05,-2.2833804337096808e-05,0.0,-5.684341886080801e-13,0.0,0.0,342.0241304347826,70.0,0.0,255.0,0.0
26.95000000000024,35.72665202325996,51.27553358463908,1372.0007577268407,6.915489126413377e-05,-2.2833804337096808e-05,0.0,0.0,0.0,0.0,342.01532608695646,70.0,0.0,255.0,0.0
27.00000000000024,35.7266554783348,51.27553244936698,1372.0007576746866,6.915489132097719e-05,-2.2833804337096808e-05,0.0,5.684341886080801e-13,0.0,0.0,342.0065217391304,70.0,0.0,255.0,0.0
27.050000000000242,35.726658933410434,51.2755313140954,1372.0007576243952,6.915489132097719e-05,-2.2833804337096808e-05,0.0,0.0,0.0,0.0,341.9977173913043,70.0,0.0,255.0,0.0
27.100000000000243,35.726662388486886,51.27553017882431,1372.000757575035,6.915489132097719e-05,-2.2833804337096808e-05,0.0,0.0,0.0,0.0,341.9889130434782,70.0,0.0,255.0,0.0
27.150000000000244,35.72666584356414,51.275529043553725,1372.000757522881,6.915489132097719e-05,-2.2833804337096808e-05,0.0,-5.684341886080801e-13,0.0,0.0,341.9801086956521,70.0,0.0,255.0,0.0
27.200000000000244,35.72666929864219,51.27552790828365,1372.0007574725896,6.915489126413377e-05,-2.2833804337096808e-05,0.0,0.0,-1.1368683772161603e-12,0.0,341.97130434782605,70.0,0.0,255.0,0.0
27.250000000000245,35.726672753721054,51.27552677301407,1372.0007574213669,6.915489132097719e-05,-2.2833804450783646e-05,0.0,0.0,0.0,0.0,341.9625,70.0,0.0,255.0,0.0
27.300000000000246,35.72667620880071,51.275525637745,1372.0007573710755,6.915489126413377e-05,-2.2833804337096808e-05,0.0,-5.684341886080801e-13,1.1368683772161603e-12,0.0,341.95369565217385,70.0,0.0,255.0,0.0
27.350000000000247,35.726679663881185,51.27552450247643,1372.00075731799,6.915489126413377e-05,-2.2833804337096808e-05,0.0,5.684341886080801e-13,0.0,0.0,341.9448913043478,70.0,0.0,255.0,0.0
27.400000000000247,35.726683118962455,51.275523367208365,1372.0007572676986,6.915489132097719e-05,-2.2833804337096808e-05,0.0,5.684341886080801e-13,1.1368683772161603e-12,0.0,341.9360869565217,70.0,0.0,255.0,0.0
27.450000000000248,35.72668657404454,51.27552223194079,1372.000757213682,6.915489132097719e-05,-2.283380422340997e-05,0.0,-5.684341886080801e-13,0.0,0.0,341.92728260869563,70.0,0.0,255.0,0.0
27.50000000000025,35.726690029127425,51.275521096673735,1372.0007571643218,6.915489126413377e-05,-2.2833804337096808e-05,0.0,0.0,-2.2737367544323206e-12,0.0,341.9184782608695,70.0,0.0,255.0,0.0
27.55000000000025,35.726693484211104,51.27551996140717,1372.000757113099,6.915489132097719e-05,-2.2833804450783646e-05,0.0,5.684341886080801e-13,0.0,0.0,341.90967391304343,70.0,0.0,255.0,0.0
27.60000000000025,35.72669693929561,51.2755188261411,1372.000757060945,6.915489132097719e-05,-2.2833804337096808e-05,0.0,0.0,1.1368683772161603e-12,0.0,341.90086956521736,70.0,0.0,255.0,0.0
27.65000000000025,35.7267003943809,51.275517690875546,1372.0007570097223,6.915489132097719e-05,-2.2833804337096808e-05,0.0,0.0,-1.1368683772161603e-12,0.0,341.89206521739123,70.0,0.0,255.0,0.0
27.70000000000025,35.726703849467015,51.27551655561049,1372.0007569575682,6.915489132097719e-05,-2.2833804450783646e-05,0.0,-5.684341886080801e-13,0.0,0.0,341.88326086956516,70.0,0.0,255.0,0.0
27.750000000000252,35.72670730455392,51.27551542034592,1372.0007569044828,6.915489126413377e-05,-2.2833804337096808e-05,0.0,0.0,2.2737367544323206e-12,0.0,341.8744565217391,70.0,0.0,255.0,0.0
27.800000000000253,35.72671075964164,51.27551428508188,1372.00075685326,6.915489132097719e-05,-2.283380422340997e-05,0.0,5.684341886080801e-13,0.0,0.0,341.865652173913,70.0,0.0,255.0,0.0
27.850000000000254,35.72671421473016,51.27551314981832,1372.0007568029687,6.915489132097719e-05,-2.2833804337096808e-05,0.0,-5.684341886080801e-13,-2.2737367544323206e-12,0.0,341.8568478260869,70.0,0.0,255.0,0.0
27.900000000000254,35.72671766981949,51.27551201455526,1372.0007567508146,6.915489126413377e-05,-2.2833804450783646e-05,0.0,0.0,0.0,0.0,341.8480434782608,70.0,0.0,255.0,0.0
27.950000000000255,35.726721124909616,51.2755108792927,1372.000756696798,6.915489132097719e-05,-2.2833804337096808e-05,0.0,5.684341886080801e-13,1.1368683772161603e-12,0.0,341.83923913043475,70.0,0.0,255.0,0.0
28.000000000000256,35.72672458000055,51.275509744030664,1372.0007566455752,6.915489132097719e-05,-2.2833804337096808e-05,0.0,0.0,-1.1368683772161603e-12,0.0,341.8304347826087,70.0,0.0,255.0,0.0
28.050000000000257,35.7267280350923,51.2755086087691,1372.000756593421,6.915489132097719e-05,-2.2833804450783646e-05,0.0,0.0,0.0,0.0,341.82163043478255,70.0,0.0,255.0,0.0
28.100000000000257,35.72673149018485,51.27550747350805,1372.000756541267,6.915489132097719e-05,-2.2833804337096808e-05,0.0,-5.684341886080801e-13,2.2737367544323206e-12,0.0,341.8128260869565,70.0,0.0,255.0,0.0
28.150000000000258,35.726734945278196,51.27550633824751,1372.000756489113,6.915489126413377e-05,-2.283380422340997e-05,0.0,0.0,0.0,0.0,341.8040217391304,70.0,0.0,255.0,0.0
28.20000000000026,35.726738400372355,51.27550520298745,1372.000756436959,6.915489132097719e-05,-2.2833804337096808e-05,0.0,5.684341886080801e-13,-1.1368683772161603e-12,0.0,341.7952173913043,70.0,0.0,255.0,0.0
28.25000000000026,35.72674185546734,51.275504067727894,1372.0007563838735,6.915489132097719e-05,-2.2833804337096808e-05,0.0,-5.684341886080801e-13,0.0,0.0,341.7864130434782,70.0,0.0,255.0,0.0
28.30000000000026,35.7267453105631,51.27550293246884,1372.0007563326508,6.915489126413377e-05,-2.2833804337096808e-05,0.0,0.0,-1.1368683772161603e-12,0.0,341.77760869565213,70.0,0.0,255.0,0.0
28.35000000000026,35.72674876565968,51.27550179721029,1372.000756278634,6.915489132097719e-05,-2.2833804450783646e-05,0.0,5.684341886080801e-13,0.0,0.0,341.76880434782606,70.0,0.0,255.0,0.0
28.40000000000026,35.72675222075706,51.275500661952236,1372.0007562255487,6.915489132097719e-05,-2.2833804337096808e-05,0.0,0.0,1.1368683772161603e-12,0.0,341.75999999999993,70.0,0.0,255.0,0.0
28.450000000000262,35.726755675855244,51.27549952669468,1372.000756174326,6.915489132097719e-05,-2.2833804337096808e-05,0.0,0.0,0.0,0.0,341.75119565217386,70.0,0.0,255.0,0.0
28.500000000000263,35.72675913095425,51.27549839143763,1372.0007561212406,6.915489132097719e-05,-2.2833804337096808e-05,0.0,-5.684341886080801e-13,0.0,0.0,341.7423913043478,70.0,0.0,255.0,0.0
28.550000000000264,35.72676258605404,51.27549725618107,1372.0007560681552,6.915489126413377e-05,-2.2833804337096808e-05,0.0,0.0,0.0,0.0,341.7335869565217,70.0,0.0,255.0,0.0
28.600000000000264,35.72676604115465,51.27549612092502,1372.0007560141385,6.915489132097719e-05,-2.2833804337096808e-05,0.0,0.0,0.0,0.0,341.7247826086956,70.0,0.0,255.0,0.0
28.650000000000265,35.72676949625606,51.275494985669454,1372.000755963847,6.915489126413377e-05,-2.2833804337096808e-05,0.0,-5.684341886080801e-13,0.0,0.0,341.7159782608695,70.0,0.0,255.0,0.0
28.700000000000266,35.72677295135829,51.27549385041439,1372.000755908899,6.915489126413377e-05,-2.2833804337096808e-05,0.0,5.684341886080801e-13,0.0,0.0,341.70717391304345,70.0,0.0,255.0,0.0
28.750000000000266,35.72677640646132,51.27549271515984,1372.000755856745,6.915489132097719e-05,-2.2833804337096808e-05,0.0,5.684341886080801e-13,-1.1368683772161603e-12,0.0,341.6983695652173,70.0,0.0,255.0,0.0
28.800000000000267,35.72677986156514,51.27549157990576,1372.0007558027282,6.915489132097719e-05,-2.2833804450783646e-05,0.0,-5.684341886080801e-13,0.0,0.0,341.68956521739125,70.0,0.0,255.0,0.0
28.850000000000268,35.72678331666978,51.275490444652206,1372.0007557496428,6.915489126413377e-05,-2.2833804337096808e-05,0.0,0.0,1.1368683772161603e-12,0.0,341.6807608695652,70.0,0.0,255.0,0.0
28.90000000000027,35.72678677177524,51.275489309399134,1372.0007556956261,6.915489132097719e-05,-2.2833804337096808e-05,0.0,5.684341886080801e-13,0.0,0.0,341.6719565217391,70.0,0.0,255.0,0.0
28.95000000000027,35.72679022688149,51.27548817414657,1372.0007556416094,6.915489132097719e-05,-2.2833804337096808e-05,0.0,0.0,1.1368683772161603e-12,0.0,341.663152173913,70.0,0.0,255.0,0.0
29.00000000000027,35.726793681988546,51.27548703889449,1372.0007555894554,6.915489132097719e-05,-2.283380422340997e-05,0.0,0.0,0.0,0.0,341.6543478260869,70.0,0.0,255.0,0.0
29.05000000000027,35.726797137096426,51.27548590364291,1372.00075553637,6.915489132097719e-05,-2.2833804337096808e-05,0.0,-5.684341886080801e-13,-2.2737367544323206e-12,0.0,341.64554347826083,70.0,0.0,255.0,0.0
29.10000000000027,35.726800592205095,51.275484768391834,1372.0007554804906,6.915489126413377e-05,-2.2833804450783646e-05,0.0,0.0,0.0,0.0,341.63673913043476,70.0,0.0,255.0,0.0
29.150000000000272,35.72680404731457,51.27548363314124,1372.0007554283366,6.915489132097719e-05,-2.2833804337096808e-05,0.0,5.684341886080801e-13,1.1368683772161603e-12,0.0,341.62793478260863,70.0,0.0,255.0,0.0
29.200000000000273,35.72680750242486,51.27548249789117,1372.0007553733885,6.915489132097719e-05,-2.2833804337096808e-05,0.0,-5.684341886080801e-13,-1.1368683772161603e-12,0.0,341.61913043478256,70.0,0.0,255.0,0.0
29.250000000000274,35.72681095753597,51.27548136264158,1372.0007553184405,6.915489126413377e-05,-2.2833804450783646e-05,0.0,0.0,0.0,0.0,341.6103260869565,70.0,0.0,255.0,0.0
29.300000000000274,35.72681441264786,51.275480227392485,1372.000755265355,6.915489132097719e-05,-2.2833804337096808e-05,0.0,5.684341886080801e-13,2.2737367544323206e-12,0.0,341.60152173913036,70.0,0.0,255.0,0.0
29.350000000000275,35.72681786776057,51.27547909214389,1372.0007552122697,6.915489132097719e-05,-2.283380422340997e-05,0.0,0.0,0.0,0.0,341.5927173913043,70.0,0.0,255.0,0.0
29.400000000000276,35.726821322874095,51.27547795689579,1372.0007551573217,6.915489132097719e-05,-2.2833804337096808e-05,0.0,0.0,-1.1368683772161603e-12,0.0,341.5839130434782,70.0,0.0,255.0,0.0
29.450000000000276,35.726824777988426,51.27547682164819,1372.000755103305,6.915489132097719e-05,-2.2833804337096808e-05,0.0,-5.684341886080801e-13,0.0,0.0,341.57510869565215,70.0,0.0,255.0,0.0
29.500000000000277,35.72682823310354,51.27547568640108,1372.000755051151,6.915489126413377e-05,-2.2833804337096808e-05,0.0,0.0,-1.1368683772161603e-12,0.0,341.566304347826,70.0,0.0,255.0,0.0
29.550000000000278,35.7268316882195,51.275474551154474,1372.0007549952716,6.915489132097719e-05,-2.2833804450783646e-05,0.0,5.684341886080801e-13,0.0,0.0,341.55749999999995,70.0,0.0,255.0,0.0
29.60000000000028,35.72683514333623,51.27547341590835,1372.0007549421862,6.915489132097719e-05,-2.2833804337096808e-05,0.0,-5.684341886080801e-13,1.1368683772161603e-12,0.0,341.5486956521739,70.0,0.0,255.0,0.0
29.65000000000028,35.7268385984538,51.27547228066274,1372.0007548863068,6.915489126413377e-05,-2.2833804337096808e-05,0.0,0.0,0.0,0.0,341.5398913043478,70.0,0.0,255.0,0.0
29.70000000000028,35.726842053572156,51.27547114541761,1372.00075483229,6.915489132097719e-05,-2.2833804337096808e-05,0.0,5.684341886080801e-13,0.0,0.0,341.5310869565217,70.0,0.0,255.0,0.0
29.75000000000028,35.72684550869133,51.27547001017298,1372.000754777342,6.915489132097719e-05,-2.2833804337096808e-05,0.0,0.0,0.0,0.0,341.5222826086956,70.0,0.0,255.0,0.0
29.80000000000028,35.72684896381132,51.27546887492884,1372.0007547233254,6.915489132097719e-05,-2.2833804337096808e-05,0.0,0.0,0.0,0.0,341.51347826086953,70.0,0.0,255.0,0.0
29.850000000000282,35.72685241893209,51.27546773968521,1372.0007546683773,6.915489132097719e-05,-2.2833804337096808e-05,0.0,-5.684341886080801e-13,-1.1368683772161603e-12,0.0,341.5046739130434,70.0,0.0,255.0,0.0
29.900000000000283,35.72685587405369,51.275466604442066,1372.0007546134293,6.915489126413377e-05,-2.2833804450783646e-05,0.0,0.0,0.0,0.0,341.49586956521733,70.0,0.0,255.0,0.0
29.950000000000284,35.72685932917609,51.27546546919941,1372.00075455755,6.915489132097719e-05,-2.2833804337096808e-05,0.0,5.684341886080801e-13,1.1368683772161603e-12,0.0,341.48706521739126,70.0,0.0,255.0,0.0
30.000000000000284,35.72686278429931,51.27546433395726,1372.000754502602,6.915489132097719e-05,-2.2833804337096808e-05,0.0,-5.684341886080801e-13,0.0,0.0,341.4782608695652,70.0,0.0,255.0,0.0
30.050000000000285,35.72686623942332,51.27546319871559,1372.000754447654,6.915489126413377e-05,-2.2833804337096808e-05,0.0,-5.684341886080801e-13,0.0,0.0,341.46945652173906,70.0,0.0,255.0,0.0
30.100000000000286,35.72686969454814,51.27546206347443,1372.0007543936372,6.915489126413377e-05,-2.2833804337096808e-05,0.0,5.684341886080801e-13,0.0,0.0,341.460652173913,70.0,0.0,255.0,0.0
30.150000000000286,35.72687314967378,51.275460928233755,1372.0007543377578,6.915489132097719e-05,-2.2833804337096808e-05,0.0,0.0,0.0,0.0,341.4518478260869,70.0,0.0,255.0,0.0
30.200000000000287,35.726876604800225,51.27545979299358,1372.0007542828098,6.915489126413377e-05,-2.2833804337096808e-05,0.0,0.0,0.0,0.0,341.44304347826085,70.0,0.0,255.0,0.0
30.250000000000288,35.72688005992748,51.27545865775389,1372.0007542278618,6.915489132097719e-05,-2.2833804337096808e-05,0.0,5.684341886080801e-13,0.0,0.0,341.4342391304347,70.0,0.0,255.0,0.0
30.30000000000029,35.72688351505553,51.27545752251471,1372.000754173845,6.915489132097719e-05,-2.2833804337096808e-05,0.0,0.0,-1.1368683772161603e-12,0.0,341.42543478260865,70.0,0.0,255.0,0.0
30.35000000000029,35.72688697018439,51.275456387276,1372.0007541170344,6.915489132097719e-05,-2.2833804450783646e-05,0.0,0.0,0.0,0.0,341.4166304347826,70.0,0.0,255.0,0.0
30.40000000000029,35.72689042531409,51.275455252037794,1372.000754061155,6.915489132097719e-05,-2.2833804337096808e-05,0.0,-5.684341886080801e-13,1.1368683772161603e-12,0.0,341.40782608695645,70.0,0.0,255.0,0.0
30.45000000000029,35.72689388044457,51.275454116800084,1372.000754006207,6.915489126413377e-05,-2.2833804337096808e-05,0.0,0.0,0.0,0.0,341.3990217391304,70.0,0.0,255.0,0.0
30.50000000000029,35.726897335575856,51.27545298156287,1372.000753951259,6.915489132097719e-05,-2.2833804337096808e-05,0.0,5.684341886080801e-13,1.1368683772161603e-12,0.0,341.3902173913043,70.0,0.0,255.0,0.0
30.550000000000292,35.72690079070795,51.275451846326135,1372.0007538953796,6.915489132097719e-05,-2.283380422340997e-05,0.0,-5.684341886080801e-13,0.0,0.0,341.38141304347823,70.0,0.0,255.0,0.0
30.600000000000293,35.726904245840885,51.27545071108991,1372.000753838569,6.915489126413377e-05,-2.2833804337096808e-05,0.0,0.0,-2.2737367544323206e-12,0.0,341.3726086956521,70.0,0.0,255.0,0.0
30.650000000000293,35.72690770097459,51.27544957585417,1372.0007537826896,6.915489132097719e-05,-2.2833804450783646e-05,0.0,5.684341886080801e-13,0.0,0.0,341.36380434782603,70.0,0.0,255.0,0.0
30.700000000000294,35.726911156109125,51.275448440618916,1372.0007537277415,6.915489132097719e-05,-2.2833804337096808e-05,0.0,0.0,1.1368683772161603e-12,0.0,341.35499999999996,70.0,0.0,255.0,0.0
30.750000000000295,35.72691461124446,51.27544730538416,1372.0007536699995,6.915489132097719e-05,-2.2833804337096808e-05,0.0,0.0,-1.1368683772161603e-12,0.0,341.3461956521739,70.0,0.0,255.0,0.0
30.800000000000296,35.72691806638061,51.2754461701499,1372.0007536159828,6.915489132097719e-05,-2.2833804450783646e-05,0.0,-5.684341886080801e-13,0.0,0.0,341.33739130434776,70.0,0.0,255.0,0.0
30.850000000000296,35.726921521517575,51.27544503491612,1372.0007535582408,6.915489126413377e-05,-2.2833804337096808e-05,0.0,0.0,2.2737367544323206e-12,0.0,341.3285869565217,70.0,0.0,255.0,0.0
30.900000000000297,35.72692497665533,51.27544389968285,1372.0007535023615,6.915489132097719e-05,-2.283380422340997e-05,0.0,5.684341886080801e-13,0.0,0.0,341.3197826086956,70.0,0.0,255.0,0.0
30.950000000000298,35.726928431793915,51.27544276445005,1372.0007534464821,6.915489132097719e-05,-2.2833804337096808e-05,0.0,-5.684341886080801e-13,-1.1368683772161603e-12,0.0,341.3109782608695,70.0,0.0,255.0,0.0
31.0000000000003,35.7269318869333,51.27544162921775,1372.000753391534,6.915489126413377e-05,-2.2833804337096808e-05,0.0,0.0,0.0,0.0,341.3021739130434,70.0,0.0,255.0,0.0
31.0500000000003,35.72693534207348,51.275440493985954,1372.000753333792,6.915489132097719e-05,-2.2833804337096808e-05,0.0,5.684341886080801e-13,-1.1368683772161603e-12,0.0,341.29336956521735,70.0,0.0,255.0,0.0
31.1000000000003,35.7269387972145,51.27543935875463,1372.00075327605,6.915489132097719e-05,-2.2833804450783646e-05,0.0,0.0,0.0,0.0,341.2845652173913,70.0,0.0,255.0,0.0
31.1500000000003,35.72694225235631,51.2754382235238,1372.000753221102,6.915489132097719e-05,-2.2833804337096808e-05,0.0,0.0,1.1368683772161603e-12,0.0,341.27576086956515,70.0,0.0,255.0,0.0
31.2000000000003,35.72694570749892,51.27543708829347,1372.00075316336,6.915489132097719e-05,-2.2833804337096808e-05,0.0,-5.684341886080801e-13,0.0,0.0,341.2669565217391,70.0,0.0,255.0,0.0
31.250000000000302,35.72694916264236,51.275435953063635,1372.0007531065494,6.915489126413377e-05,-2.2833804337096808e-05,0.0,0.0,0.0,0.0,341.258152173913,70.0,0.0,255.0,0.0
31.300000000000303,35.7269526177866,51.27543481783428,1372.0007530516014,6.915489132097719e-05,-2.2833804337096808e-05,0.0,5.684341886080801e-13,0.0,0.0,341.24934782608693,70.0,0.0,255.0,0.0
31.350000000000303,35.72695607293165,51.27543368260542,1372.0007529938594,6.915489132097719e-05,-2.2833804337096808e-05,0.0,-5.684341886080801e-13,0.0,0.0,341.2405434782608,70.0,0.0,255.0,0.0
31.400000000000304,35.726959528077515,51.275432547377044,1372.0007529361174,6.915489126413377e-05,-2.2833804337096808e-05,0.0,0.0,0.0,0.0,341.23173913043473,70.0,0.0,255.0,0.0
31.450000000000305,35.72696298322418,51.27543141214917,1372.0007528793067,6.915489132097719e-05,-2.2833804337096808e-05,0.0,5.684341886080801e-13,0.0,0.0,341.22293478260866,70.0,0.0,255.0,0.0
31.500000000000306,35.72696643837166,51.27543027692177,1372.000752822496,6.915489132097719e-05,-2.2833804337096808e-05,0.0,-1.1368683772161603e-12,-1.1368683772161603e-12,0.0,341.21413043478253,70.0,0.0,255.0,0.0
31.550000000000306,35.72696989351996,51.275429141694865,1372.000752764754,6.915489120729035e-05,-2.2833804450783646e-05,0.0,0.0,0.0,0.0,341.20532608695646,70.0,0.0,255.0,0.0
31.600000000000307,35.72697334866905,51.27542800646846,1372.000752707012,6.915489132097719e-05,-2.2833804337096808e-05,0.0,1.1368683772161603e-12,1.1368683772161603e-12,0.0,341.1965217391304,70.0,0.0,255.0,0.0
31.650000000000308,35.72697680381897,51.27542687124253,1372.0007526502013,6.915489132097719e-05,-2.2833804337096808e-05,0.0,0.0,0.0,0.0,341.1877173913043,70.0,0.0,255.0,0.0
31.70000000000031,35.726980258969675,51.27542573601709,1372.0007525924593,6.915489132097719e-05,-2.2833804337096808e-05,0.0,0.0,0.0,0.0,341.1789130434782,70.0,0.0,255.0,0.0
31.75000000000031,35.72698371412121,51.27542460079214,1372.0007525375113,6.915489132097719e-05,-2.2833804337096808e-05,0.0,-5.684341886080801e-13,0.0,0.0,341.1701086956521,70.0,0.0,255.0,0.0
31.80000000000031,35.72698716927357,51.275423465567684,1372.000752478838,6.915489126413377e-05,-2.2833804337096808e-05,0.0,0.0,0.0,0.0,341.16130434782605,70.0,0.0,255.0,0.0
31.85000000000031,35.726990624426705,51.27542233034372,1372.0007524220273,6.915489132097719e-05,-2.2833804337096808e-05,0.0,5.684341886080801e-13,-1.1368683772161603e-12,0.0,341.1525,70.0,0.0,255.0,0.0
31.90000000000031,35.72699407958066,51.27542119512024,1372.0007523624226,6.915489132097719e-05,-2.2833804450783646e-05,0.0,-5.684341886080801e-13,0.0,0.0,341.14369565217385,70.0,0.0,255.0,0.0
31.950000000000312,35.726997534735446,51.27542005989725,1372.0007523065433,6.915489126413377e-05,-2.2833804337096808e-05,0.0,0.0,1.1368683772161603e-12,1.8189894035458306e-11,341.1348913043478,70.0,0.0,255.0,0.0
32.00000000000031,35.727000989891025,51.27541892467475,1372.00075224787,6.915489132097719e-05,-2.2833804337096808e-05,1.8189894035458565e-12,0.0,0.0,1.818989403545766e-11,341.1260869565217,70.0,0.0,255.0,0.0
32.05000000000031,35.72700444504742,51.27541778945274,1372.0007521891966,6.915489126413377e-05,-2.2833804337096808e-05,1.8189894035458565e-12,0.0,0.0,-1.818989403545572e-11,341.1172826086956,70.0,0.0,255.0,0.0
32.100000000000314,35.72700790020462,51.27541665423121,1372.000752132386,6.915489132097719e-05,-2.2833804337096808e-05,0.0,5.684341886080801e-13,0.0,-3.637978807091403e-11,341.1084782608695,70.0,0.0,255.0,0.0
32.15000000000032,35.727011355362635,51.27541551901018,1372.0007520727813,6.915489132097719e-05,-2.2833804337096808e-05,-1.8189894035458565e-12,0.0,0.0,5.169878828456276e-24,341.09967391304343,70.0,0.0,255.0,0.0
32.200000000000315,35.72701481052147,51.27541438378962,1372.0007520178333,6.915489132097719e-05,-2.2833804337096808e-05,0.0,0.0,0.0,3.63797880709192e-11,341.09086956521736,70.0,0.0,255.0,0.0
32.25000000000031,35.72701826568109,51.27541324856956,1372.00075195916,6.915489132097719e-05,-2.2833804337096808e-05,1.8189894035458565e-12,0.0,0.0,5.169878828456276e-24,341.08206521739123,70.0,0.0,255.0,0.0
32.30000000000032,35.72702172084154,51.27541211335,1372.000751901418,6.915489132097719e-05,-2.2833804337096808e-05,0.0,0.0,-1.1368683772161603e-12,-3.637978807091403e-11,341.07326086956516,70.0,0.0,255.0,0.0
32.35000000000032,35.72702517600281,51.2754109781309,1372.0007518427446,6.915489132097719e-05,-2.2833804450783646e-05,-1.8189894035458565e-12,0.0,0.0,5.169878828456276e-24,341.0644565217391,70.0,0.0,255.0,0.0
32.40000000000032,35.72702863116486,51.275409842912296,1372.0007517840713,6.915489132097719e-05,-2.2833804337096808e-05,0.0,-5.684341886080801e-13,2.2737367544323206e-12,3.63797880709192e-11,341.055652173913,70.0,0.0,255.0,0.0
32.450000000000315,35.72703208632775,51.27540870769419,1372.0007517263293,6.915489126413377e-05,-2.283380422340997e-05,1.8189894035458565e-12,0.0,-1.1368683772161603e-12,5.169878828456276e-24,341.0468478260869,70.0,0.0,255.0,0.0
32.50000000000032,35.72703554149144,51.27540757247657,1372.0007516657934,6.915489132097719e-05,-2.2833804450783646e-05,0.0,5.684341886080801e-13,-1.1368683772161603e-12,-3.637978807091403e-11,341.0380434782608,70.0,0.0,255.0,0.0
32.550000000000324,35.72703899665595,51.27540643725942,1372.0007516089827,6.915489132097719e-05,-2.2833804337096808e-05,-1.8189894035458565e-12,0.0,1.1368683772161603e-12,5.169878828456276e-24,341.02923913043475,70.0,0.0,255.0,0.0
32.60000000000032,35.727042451821255,51.27540530204277,1372.0007515503094,6.915489132097719e-05,-2.2833804337096808e-05,0.0,0.0,-1.1368683772161603e-12,3.63797880709192e-11,341.0204347826086,70.0,0.0,255.0,0.0
32.65000000000032,35.72704590698739,51.275404166826604,1372.000751491636,6.915489132097719e-05,-2.2833804450783646e-05,1.8189894035458565e-12,0.0,1.1368683772161603e-12,5.169878828456276e-24,341.01163043478255,70.0,0.0,255.0,0.0
32.70000000000032,35.72704936215431,51.275403031610914,1372.0007514329627,6.915489132097719e-05,-2.283380422340997e-05,0.0,0.0,1.1368683772161603e-12,-3.637978807091403e-11,341.0028260869565,70.0,0.0,255.0,0.0
32.75000000000033,35.72705281732207,51.27540189639573,1372.0007513742894,6.915489132097719e-05,-2.2833804337096808e-05,-1.8189894035458565e-12,0.0,-2.2737367544323206e-12,5.169878828456276e-24,340.9940217391304,70.0,0.0,255.0,0.0
32.800000000000324,35.72705627249062,51.275400761181025,1372.0007513146847,6.915489132097719e-05,-2.2833804450783646e-05,0.0,-5.684341886080801e-13,0.0,3.63797880709192e-11,340.9852173913043,70.0,0.0,255.0,0.0
32.85000000000032,35.72705972766,51.27539962596679,1372.0007512569427,6.915489126413377e-05,-2.2833804337096808e-05,1.8189894035458565e-12,0.0,1.1368683772161603e-12,5.169878828456276e-24,340.9764130434782,70.0,0.0,255.0,0.0
32.900000000000325,35.72706318283017,51.27539849075306,1372.0007511992007,6.915489132097719e-05,-2.2833804337096808e-05,0.0,5.684341886080801e-13,0.0,-3.637978807091403e-11,340.96760869565213,70.0,0.0,255.0,0.0
32.95000000000033,35.727066638001176,51.2753973555398,1372.0007511377335,6.915489132097719e-05,-2.2833804337096808e-05,-1.8189894035458565e-12,-5.684341886080801e-13,0.0,5.169878828456276e-24,340.958804347826,70.0,0.0,255.0,0.0
33.00000000000033,35.72707009317298,51.27539622032704,1372.0007510781288,6.915489126413377e-05,-2.2833804337096808e-05,0.0,0.0,0.0,3.63797880709192e-11,340.94999999999993,70.0,0.0,255.0,0.0
33.050000000000324,35.727073548345594,51.27539508511475,1372.0007510203868,6.915489132097719e-05,-2.2833804337096808e-05,1.8189894035458565e-12,0.0,0.0,5.169878828456276e-24,340.94119565217386,70.0,0.0,255.0,0.0
33.10000000000033,35.727077003519035,51.27539394990296,1372.0007509589195,6.915489126413377e-05,-2.2833804337096808e-05,0.0,0.0,0.0,-3.637978807091403e-11,340.9323913043478,70.0,0.0,255.0,0.0
33.15000000000033,35.72708045869326,51.27539281469165,1372.0007509011775,6.915489132097719e-05,-2.2833804337096808e-05,-1.8189894035458565e-12,0.0,0.0,5.169878828456276e-24,340.92358695652166,70.0,0.0,255.0,0.0
33.20000000000033,35.72708391386833,51.275391679480826,1372.0007508406416,6.915489126413377e-05,-2.2833804337096808e-05,0.0,-5.684341886080801e-13,0.0,3.63797880709192e-11,340.9147826086956,70.0,0.0,255.0,0.0
33.25000000000033,35.727087369044185,51.27539054427047,1372.0007507819682,6.915489126413377e-05,-2.2833804337096808e-05,1.8189894035458565e-12,5.684341886080801e-13,0.0,5.169878828456276e-24,340.9059782608695,70.0,0.0,255.0,0.0
33.30000000000033,35.72709082422087,51.275389409060615,1372.0007507214323,6.915489132097719e-05,-2.2833804337096808e-05,0.0,5.684341886080801e-13,0.0,-3.637978807091403e-11,340.89717391304345,70.0,0.0,255.0,0.0
33.350000000000335,35.727094279398344,51.27538827385125,1372.0007506636903,6.915489132097719e-05,-2.2833804337096808e-05,-1.8189894035458565e-12,0.0,0.0,5.169878828456276e-24,340.8883695652173,70.0,0.0,255.0,0.0
33.40000000000033,35.727097734576645,51.27538713864236,1372.0007506031543,6.915489132097719e-05,-2.2833804337096808e-05,0.0,0.0,-1.1368683772161603e-12,3.63797880709192e-11,340.87956521739125,70.0,0.0,255.0,0.0
33.45000000000033,35.727101189755764,51.275386003433944,1372.0007505426183,6.915489132097719e-05,-2.2833804450783646e-05,1.8189894035458565e-12,-5.684341886080801e-13,0.0,5.169878828456276e-24,340.8707608695652,70.0,0.0,255.0,0.0
33.500000000000334,35.7271046449357,51.27538486822603,1372.000750483945,6.915489126413377e-05,-2.2833804337096808e-05,0.0,0.0,1.1368683772161603e-12,-3.637978807091403e-11,340.8619565217391,70.0,0.0,255.0,0.0
33.55000000000034,35.72710810011643,51.275383733018586,1372.0007504243404,6.915489132097719e-05,-2.2833804337096808e-05,-1.8189894035458565e-12,0.0,-1.1368683772161603e-12,5.169878828456276e-24,340.853152173913,70.0,0.0,255.0,0.0
33.600000000000335,35.72711155529798,51.275382597811635,1372.0007503647357,6.915489126413377e-05,-2.2833804450783646e-05,0.0,-5.684341886080801e-13,1.1368683772161603e-12,3.63797880709192e-11,340.8443478260869,70.0,0.0,255.0,0.0
33.65000000000033,35.72711501048035,51.27538146260516,1372.0007503041998,6.915489126413377e-05,-2.283380422340997e-05,1.8189894035458565e-12,5.684341886080801e-13,1.1368683772161603e-12,5.169878828456276e-24,340.83554347826083,70.0,0.0,255.0,0.0
33.70000000000034,35.72711846566353,51.275380327399176,1372.0007502436638,6.915489132097719e-05,-2.2833804337096808e-05,0.0,5.684341886080801e-13,-2.2737367544323206e-12,-3.637978807091403e-11,340.8267391304347,70.0,0.0,255.0,0.0
33.75000000000034,35.72712192084752,51.27537919219367,1372.0007501831278,6.915489132097719e-05,-2.2833804450783646e-05,-1.8189894035458565e-12,0.0,0.0,5.169878828456276e-24,340.81793478260863,70.0,0.0,255.0,0.0
33.80000000000034,35.72712537603232,51.27537805698864,1372.0007501225919,6.915489132097719e-05,-2.2833804337096808e-05,0.0,0.0,1.1368683772161603e-12,3.63797880709192e-11,340.80913043478256,70.0,0.0,255.0,0.0
33.850000000000335,35.72712883121794,51.27537692178411,1372.0007500620559,6.915489132097719e-05,-2.2833804337096808e-05,1.8189894035458565e-12,-5.684341886080801e-13,0.0,5.169878828456276e-24,340.8003260869565,70.0,0.0,255.0,0.0
33.90000000000034,35.72713228640436,51.27537578658005,1372.0007500024512,6.915489126413377e-05,-2.2833804337096808e-05,0.0,0.0,0.0,-3.637978807091403e-11,340.79152173913036,70.0,0.0,255.0,0.0
33.950000000000344,35.727135741591596,51.275374651376474,1372.000749940984,6.915489132097719e-05,-2.2833804337096808e-05,-1.8189894035458565e-12,0.0,0.0,5.169878828456276e-24,340.7827173913043,70.0,0.0,255.0,0.0
34.00000000000034,35.727139196779646,51.27537351617339,1372.0007498813793,6.915489126413377e-05,-2.2833804337096808e-05,0.0,-5.684341886080801e-13,0.0,3.63797880709192e-11,340.7739130434782,70.0,0.0,255.0,0.0
34.05000000000034,35.72714265196853,51.27537238097077,1372.000749819912,6.915489126413377e-05,-2.2833804337096808e-05,1.8189894035458565e-12,5.684341886080801e-13,0.0,5.169878828456276e-24,340.76510869565215,70.0,0.0,255.0,0.0
34.10000000000034,35.7271461071582,51.27537124576864,1372.00074976217,6.915489132097719e-05,-2.2833804337096808e-05,0.0,5.684341886080801e-13,0.0,-3.637978807091403e-11,340.756304347826,70.0,0.0,255.0,0.0
34.15000000000035,35.727149562348686,51.275370110567,1372.00074969884,6.915489132097719e-05,-2.2833804337096808e-05,-1.8189894035458565e-12,0.0,0.0,5.169878828456276e-24,340.74749999999995,70.0,0.0,255.0,0.0
34.200000000000344,35.727153017540004,51.27536897536583,1372.0007496383041,6.915489132097719e-05,-2.2833804337096808e-05,0.0,0.0,0.0,3.63797880709192e-11,340.7386956521739,70.0,0.0,255.0,0.0
34.25000000000034,35.72715647273211,51.275367840165146,1372.0007495768368,6.915489132097719e-05,-2.2833804337096808e-05,1.8189894035458565e-12,-5.684341886080801e-13,0.0,5.169878828456276e-24,340.72989130434775,70.0,0.0,255.0,0.0
34.300000000000345,35.72715992792506,51.275366704964945,1372.0007495153695,6.915489126413377e-05,-2.2833804337096808e-05,0.0,0.0,-1.1368683772161603e-12,-3.637978807091403e-11,340.7210869565217,70.0,0.0,255.0,0.0
34.35000000000035,35.72716338311879,51.27536556976522,1372.000749455765,6.915489132097719e-05,-2.2833804450783646e-05,-1.8189894035458565e-12,0.0,0.0,5.169878828456276e-24,340.7122826086956,70.0,0.0,255.0,0.0
34.40000000000035,35.72716683831336,51.27536443456598,1372.0007493942976,6.915489126413377e-05,-2.2833804337096808e-05,0.0,-1.1368683772161603e-12,2.2737367544323206e-12,3.63797880709192e-11,340.70347826086953,70.0,0.0,255.0,0.0
34.450000000000344,35.72717029350872,51.27536329936723,1372.0007493328303,6.915489120729035e-05,-2.283380422340997e-05,1.8189894035458565e-12,5.684341886080801e-13,-1.1368683772161603e-12,5.169878828456276e-24,340.6946739130434,70.0,0.0,255.0,0.0
34.50000000000035,35.7271737487049,51.275362164168946,1372.0007492722943,6.915489132097719e-05,-2.2833804450783646e-05,0.0,1.1368683772161603e-12,-1.1368683772161603e-12,-3.637978807091403e-11,340.68586956521733,70.0,0.0,255.0,0.0
34.55000000000035,35.7271772039019,51.27536102897115,1372.0007492098957,6.915489132097719e-05,-2.2833804337096808e-05,-1.8189894035458565e-12,0.0,2.2737367544323206e-12,5.169878828456276e-24,340.67706521739126,70.0,0.0,255.0,0.0
34.60000000000035,35.7271806590997,51.275359893773825,1372.000749150291,6.915489132097719e-05,-2.283380422340997e-05,0.0,-5.684341886080801e-13,-1.1368683772161603e-12,3.63797880709192e-11,340.66826086956513,70.0,0.0,255.0,0.0
34.65000000000035,35.727184114298346,51.275358758577,1372.0007490888238,6.915489126413377e-05,-2.2833804450783646e-05,1.8189894035458565e-12,-5.684341886080801e-13,-1.1368683772161603e-12,5.169878828456276e-24,340.65945652173906,70.0,0.0,255.0,0.0
34.70000000000035,35.72718756949778,51.27535762338063,1372.0007490273565,6.915489126413377e-05,-2.2833804337096808e-05,0.0,5.684341886080801e-13,1.1368683772161603e-12,-3.637978807091403e-11,340.650652173913,70.0,0.0,255.0,0.0
34.750000000000355,35.727191024698044,51.275356488184755,1372.0007489658892,6.915489132097719e-05,-2.2833804337096808e-05,-1.8189894035458565e-12,0.0,-1.1368683772161603e-12,5.169878828456276e-24,340.6418478260869,70.0,0.0,255.0,0.0
34.80000000000035,35.727194479899104,51.27535535298936,1372.0007489034906,6.915489126413377e-05,-2.2833804450783646e-05,0.0,0.0,1.1368683772161603e-12,3.63797880709192e-11,340.6330434782608,70.0,0.0,255.0,0.0
34.85000000000035,35.72719793510099,51.27535421779444,1372.0007488420233,6.915489132097719e-05,-2.283380422340997e-05,1.8189894035458565e-12,5.684341886080801e-13,1.1368683772161603e-12,5.169878828456276e-24,340.6242391304347,70.0,0.0,255.0,0.0
34.900000000000354,35.72720139030369,51.27535308260001,1372.0007487786934,6.915489132097719e-05,-2.2833804337096808e-05,0.0,0.0,-2.2737367544323206e-12,-3.637978807091403e-11,340.61543478260865,70.0,0.0,255.0,0.0
34.95000000000036,35.72720484550719,51.27535194740605,1372.0007487181574,6.915489132097719e-05,-2.2833804450783646e-05,-1.8189894035458565e-12,0.0,0.0,5.169878828456276e-24,340.6066304347826,70.0,0.0,255.0,0.0
35.000000000000355,35.72720830071152,51.27535081221257,1372.0007486566901,6.915489132097719e-05,-2.2833804337096808e-05,0.0,-5.684341886080801e-13,1.1368683772161603e-12,3.63797880709192e-11,340.59782608695645,70.0,0.0,255.0,0.0
35.05000000000035,35.72721175591666,51.27534967701957,1372.0007485942915,6.915489126413377e-05,-2.2833804337096808e-05,1.8189894035458565e-12,-5.684341886080801e-13,0.0,5.169878828456276e-24,340.5890217391304,70.0,0.0,255.0,0.0
35.10000000000036,35.72721521112262,51.27534854182705,1372.0007485328242,6.915489126413377e-05,-2.2833804337096808e-05,0.0,5.684341886080801e-13,0.0,-3.637978807091403e-11,340.5802173913043,70.0,0.0,255.0,0.0
35.15000000000036,35.72721866632937,51.27534740663501,1372.0007484704256,6.915489132097719e-05,-2.2833804337096808e-05,-1.8189894035458565e-12,0.0,0.0,5.169878828456276e-24,340.5714130434782,70.0,0.0,255.0,0.0
35.20000000000036,35.72722212153696,51.275346271443446,1372.0007484070957,6.915489126413377e-05,-2.2833804337096808e-05,0.0,0.0,0.0,3.63797880709192e-11,340.5626086956521,70.0,0.0,255.0,0.0
35.250000000000355,35.72722557674536,51.27534513625235,1372.0007483465597,6.915489132097719e-05,-2.2833804337096808e-05,1.8189894035458565e-12,5.684341886080801e-13,0.0,5.169878828456276e-24,340.55380434782603,70.0,0.0,255.0,0.0
35.30000000000036,35.72722903195457,51.27534400106174,1372.0007482832298,6.915489132097719e-05,-2.2833804337096808e-05,0.0,0.0,0.0,-3.637978807091403e-11,340.54499999999996,70.0,0.0,255.0,0.0
35.350000000000364,35.7272324871646,51.275342865871615,1372.0007482208312,6.915489132097719e-05,-2.2833804337096808e-05,-1.8189894035458565e-12,0.0,0.0,5.169878828456276e-24,340.53619565217383,70.0,0.0,255.0,0.0
35.40000000000036,35.72723594237544,51.27534173068196,1372.0007481593639,6.915489132097719e-05,-2.2833804337096808e-05,0.0,-5.684341886080801e-13,-1.1368683772161603e-12,3.63797880709192e-11,340.52739130434776,70.0,0.0,255.0,0.0
35.45000000000036,35.72723939758709,51.275340595492786,1372.0007480951026,6.915489126413377e-05,-2.2833804450783646e-05,1.8189894035458565e-12,-5.684341886080801e-13,0.0,5.169878828456276e-24,340.5185869565217,70.0,0.0,255.0,0.0
35.50000000000036,35.727242852799556,51.27533946030409,1372.0007480345666,6.915489126413377e-05,-2.2833804337096808e-05,0.0,5.684341886080801e-13,1.1368683772161603e-12,-3.637978807091403e-11,340.5097826086956,70.0,0.0,255.0,0.0
35.55000000000037,35.72724630801284,51.27533832511587,1372.0007479712367,6.915489132097719e-05,-2.2833804337096808e-05,-1.8189894035458565e-12,0.0,-1.1368683772161603e-12,5.169878828456276e-24,340.5009782608695,70.0,0.0,255.0,0.0
35.600000000000364,35.72724976322694,51.27533718992813,1372.000747908838,6.915489126413377e-05,-2.2833804450783646e-05,0.0,0.0,1.1368683772161603e-12,3.63797880709192e-11,340.4921739130434,70.0,0.0,255.0,0.0
35.65000000000036,35.72725321844187,51.27533605474086,1372.0007478445768,6.915489132097719e-05,-2.283380422340997e-05,1.8189894035458565e-12,5.684341886080801e-13,1.1368683772161603e-12,5.169878828456276e-24,340.48336956521734,70.0,0.0,255.0,0.0
35.700000000000365,35.72725667365758,51.27533491955408,1372.0007477821782,6.915489132097719e-05,-2.2833804337096808e-05,0.0,0.0,-2.2737367544323206e-12,-3.637978807091403e-11,340.4745652173912,70.0,0.0,255.0,0.0
35.75000000000037,35.72726012887413,51.27533378436777,1372.0007477188483,6.915489132097719e-05,-2.2833804450783646e-05,-1.8189894035458565e-12,0.0,1.1368683772161603e-12,5.169878828456276e-24,340.46576086956514,70.0,0.0,255.0,0.0
35.80000000000037,35.727263584091475,51.27533264918193,1372.0007476564497,6.915489132097719e-05,-2.283380422340997e-05,0.0,-5.684341886080801e-13,1.1368683772161603e-12,3.63797880709192e-11,340.4569565217391,70.0,0.0,255.0,0.0
35.850000000000364,35.72726703930966,51.27533151399657,1372.0007475931197,6.915489126413377e-05,-2.2833804337096808e-05,1.8189894035458565e-12,-1.1368683772161603e-12,-2.2737367544323206e-12,5.169878828456276e-24,340.448152173913,70.0,0.0,255.0,0.0
35.90000000000037,35.727270494528646,51.275330378811695,1372.0007475297898,6.915489120729035e-05,-2.2833804450783646e-05,0.0,5.684341886080801e-13,0.0,-3.637978807091403e-11,340.4393478260869,70.0,0.0,255.0,0.0
35.95000000000037,35.727273949748444,51.27532924362728,1372.0007474664599,6.915489132097719e-05,-2.2833804337096808e-05,-1.8189894035458565e-12,1.1368683772161603e-12,1.1368683772161603e-12,5.169878828456276e-24,340.4305434782608,70.0,0.0,255.0,0.0
36.00000000000037,35.72727740496907,51.27532810844337,1372.0007474021986,6.915489132097719e-05,-2.2833804337096808e-05,0.0,0.0,0.0,3.63797880709192e-11,340.42173913043473,70.0,0.0,255.0,0.0
36.05000000000037,35.7272808601905,51.27532697325991,1372.0007473416626,6.915489132097719e-05,-2.2833804337096808e-05,1.8189894035458565e-12,0.0,0.0,5.169878828456276e-24,340.41293478260866,70.0,0.0,255.0,0.0
36.10000000000037,35.72728431541276,51.27532583807693,1372.00074727647,6.915489132097719e-05,-2.2833804337096808e-05,0.0,0.0,0.0,-3.637978807091403e-11,340.40413043478253,70.0,0.0,255.0,0.0
36.150000000000375,35.72728777063581,51.27532470289444,1372.0007472122088,6.915489132097719e-05,-2.2833804337096808e-05,-1.8189894035458565e-12,0.0,0.0,5.169878828456276e-24,340.39532608695646,70.0,0.0,255.0,0.0
36.20000000000037,35.727291225859716,51.27532356771241,1372.0007471498102,6.915489132097719e-05,-2.2833804337096808e-05,0.0,-5.684341886080801e-13,0.0,3.63797880709192e-11,340.3865217391304,70.0,0.0,255.0,0.0
36.25000000000037,35.7272946810844,51.27532243253086,1372.0007470874116,6.915489126413377e-05,-2.2833804337096808e-05,1.8189894035458565e-12,0.0,0.0,5.169878828456276e-24,340.37771739130426,70.0,0.0,255.0,0.0
36.300000000000374,35.72729813630991,51.275321297349784,1372.0007470231503,6.915489132097719e-05,-2.2833804337096808e-05,0.0,5.684341886080801e-13,0.0,-3.637978807091403e-11,340.3689130434782,70.0,0.0,255.0,0.0
36.35000000000038,35.72730159153624,51.27532016216919,1372.000746958889,6.915489132097719e-05,-2.2833804337096808e-05,-1.8189894035458565e-12,0.0,0.0,5.169878828456276e-24,340.3601086956521,70.0,0.0,255.0,0.0
36.400000000000375,35.72730504676339,51.27531902698905,1372.0007468946278,6.915489132097719e-05,-2.2833804337096808e-05,0.0,0.0,0.0,3.63797880709192e-11,340.35130434782604,70.0,0.0,255.0,0.0
36.45000000000037,35.72730850199135,51.275317891809415,1372.0007468322292,6.915489132097719e-05,-2.2833804337096808e-05,1.8189894035458565e-12,0.0,0.0,5.169878828456276e-24,340.3424999999999,70.0,0.0,255.0,0.0
36.50000000000038,35.727311957220124,51.27531675663023,1372.000746765174,6.915489132097719e-05,-2.2833804337096808e-05,0.0,0.0,0.0,-3.637978807091403e-11,340.33369565217384,70.0,0.0,255.0,0.0
36.55000000000038,35.72731541244973,51.27531562145153,1372.000746701844,6.915489132097719e-05,-2.2833804337096808e-05,-1.8189894035458565e-12,0.0,0.0,5.169878828456276e-24,340.3248913043478,70.0,0.0,255.0,0.0
36.60000000000038,35.727318867680125,51.2753144862733,1372.0007466375828,6.915489132097719e-05,-2.2833804337096808e-05,0.0,-5.684341886080801e-13,-1.1368683772161603e-12,3.63797880709192e-11,340.3160869565217,70.0,0.0,255.0,0.0
36.650000000000375,35.727322322911355,51.27531335109555,1372.0007465733215,6.915489126413377e-05,-2.2833804450783646e-05,1.8189894035458565e-12,0.0,0.0,5.169878828456276e-24,340.3072826086956,70.0,0.0,255.0,0.0
36.70000000000038,35.72732577814339,51.27531221591827,1372.0007465099916,6.915489132097719e-05,-2.2833804337096808e-05,0.0,5.684341886080801e-13,1.1368683772161603e-12,-3.637978807091403e-11,340.2984782608695,70.0,0.0,255.0,0.0
36.750000000000384,35.727329233376246,51.275311080741474,1372.000746444799,6.915489132097719e-05,-2.2833804337096808e-05,-1.8189894035458565e-12,0.0,-1.1368683772161603e-12,5.169878828456276e-24,340.28967391304343,70.0,0.0,255.0,0.0
36.80000000000038,35.727332688609934,51.27530994556514,1372.0007463805377,6.915489132097719e-05,-2.2833804450783646e-05,0.0,0.0,1.1368683772161603e-12,3.63797880709192e-11,340.2808695652173,70.0,0.0,255.0,0.0
36.85000000000038,35.72733614384441,51.27530881038928,1372.0007463162765,6.915489132097719e-05,-2.283380422340997e-05,1.8189894035458565e-12,0.0,1.1368683772161603e-12,5.169878828456276e-24,340.27206521739123,70.0,0.0,255.0,0.0
36.90000000000038,35.72733959907972,51.275307675213895,1372.0007462529466,6.915489132097719e-05,-2.2833804337096808e-05,0.0,0.0,-2.2737367544323206e-12,-3.637978807091403e-11,340.26326086956516,70.0,0.0,255.0,0.0
36.95000000000039,35.72734305431584,51.27530654003898,1372.0007461858913,6.915489132097719e-05,-2.2833804450783646e-05,-1.8189894035458565e-12,0.0,1.1368683772161603e-12,5.169878828456276e-24,340.2544565217391,70.0,0.0,255.0,0.0
37.000000000000384,35.72734650955278,51.27530540486454,1372.0007461225614,6.915489132097719e-05,-2.283380422340997e-05,0.0,-5.684341886080801e-13,1.1368683772161603e-12,3.63797880709192e-11,340.24565217391296,70.0,0.0,255.0,0.0
37.05000000000038,35.72734996479054,51.27530426969059,1372.0007460573688,6.915489126413377e-05,-2.2833804337096808e-05,1.8189894035458565e-12,0.0,-2.2737367544323206e-12,5.169878828456276e-24,340.2368478260869,70.0,0.0,255.0,0.0
37.100000000000385,35.72735342002911,51.27530313451709,1372.0007459931076,6.915489132097719e-05,-2.2833804450783646e-05,0.0,5.684341886080801e-13,0.0,-3.637978807091403e-11,340.2280434782608,70.0,0.0,255.0,0.0
37.15000000000039,35.727356875268505,51.275301999344066,1372.0007459269837,6.915489132097719e-05,-2.2833804337096808e-05,-1.8189894035458565e-12,0.0,1.1368683772161603e-12,5.169878828456276e-24,340.21923913043474,70.0,0.0,255.0,0.0
37.20000000000039,35.727360330508695,51.27530086417152,1372.0007458627224,6.915489132097719e-05,-2.2833804337096808e-05,0.0,0.0,0.0,3.63797880709192e-11,340.2104347826086,70.0,0.0,255.0,0.0
37.250000000000384,35.72736378574972,51.27529972899944,1372.0007457984611,6.915489132097719e-05,-2.2833804337096808e-05,1.8189894035458565e-12,0.0,0.0,5.169878828456276e-24,340.20163043478254,70.0,0.0,255.0,0.0
37.30000000000039,35.72736724099156,51.275298593827834,1372.0007457332686,6.915489132097719e-05,-2.2833804337096808e-05,0.0,-5.684341886080801e-13,0.0,-3.637978807091403e-11,340.1928260869565,70.0,0.0,255.0,0.0
37.35000000000039,35.727370696234225,51.2752974586567,1372.0007456671447,6.915489126413377e-05,-2.2833804337096808e-05,-1.8189894035458565e-12,0.0,0.0,5.169878828456276e-24,340.18402173913034,70.0,0.0,255.0,0.0
37.40000000000039,35.72737415147768,51.27529632348605,1372.000745601952,6.915489132097719e-05,-2.2833804337096808e-05,0.0,0.0,0.0,3.63797880709192e-11,340.1752173913043,70.0,0.0,255.0,0.0
37.45000000000039,35.72737760672198,51.27529518831586,1372.0007455376908,6.915489126413377e-05,-2.2833804337096808e-05,1.8189894035458565e-12,0.0,0.0,5.169878828456276e-24,340.1664130434782,70.0,0.0,255.0,0.0
37.50000000000039,35.72738106196708,51.27529405314614,1372.0007454724982,6.915489132097719e-05,-2.2833804337096808e-05,0.0,5.684341886080801e-13,0.0,-3.637978807091403e-11,340.15760869565213,70.0,0.0,255.0,0.0
37.550000000000395,35.72738451721302,51.2752929179769,1372.0007454063743,6.915489132097719e-05,-2.2833804337096808e-05,-1.8189894035458565e-12,0.0,-1.1368683772161603e-12,5.169878828456276e-24,340.148804347826,70.0,0.0,255.0,0.0
37.60000000000039,35.72738797245975,51.275291782808125,1372.0007453411818,6.915489132097719e-05,-2.2833804450783646e-05,0.0,-5.684341886080801e-13,0.0,3.63797880709192e-11,340.13999999999993,70.0,0.0,255.0,0.0
37.65000000000039,35.72739142770731,51.275290647639814,1372.0007452750579,6.915489126413377e-05,-2.2833804337096808e-05,1.8189894035458565e-12,0.0,2.2737367544323206e-12,5.169878828456276e-24,340.13119565217386,70.0,0.0,255.0,0.0
37.700000000000394,35.727394882955686,51.275289512471986,1372.0007452107966,6.915489132097719e-05,-2.283380422340997e-05,0.0,1.1368683772161603e-12,-1.1368683772161603e-12,-3.637978807091403e-11,340.1223913043478,70.0,0.0,255.0,0.0
37.7500000000004,35.727398338204885,51.275288377304626,1372.00074514281,6.91548913778206e-05,-2.2833804450783646e-05,-1.8189894035458565e-12,0.0,-1.1368683772161603e-12,5.169878828456276e-24,340.11358695652166,70.0,0.0,255.0,0.0
37.800000000000395,35.727401793454895,51.27528724213774,1372.0007450785488,6.915489132097719e-05,-2.2833804337096808e-05,0.0,-1.1368683772161603e-12,1.1368683772161603e-12,3.63797880709192e-11,340.1047826086956,70.0,0.0,255.0,0.0
37.85000000000039,35.72740524870572,51.27528610697132,1372.0007450133562,6.915489126413377e-05,-2.2833804337096808e-05,1.8189894035458565e-12,0.0,-1.1368683772161603e-12,5.169878828456276e-24,340.0959782608695,70.0,0.0,255.0,0.0
37.9000000000004,35.72740870395737,51.27528497180537,1372.0007449472323,6.915489132097719e-05,-2.2833804450783646e-05,0.0,5.684341886080801e-13,0.0,-3.637978807091403e-11,340.0871739130434,70.0,0.0,255.0,0.0
37.9500000000004,35.72741215920985,51.27528383663988,1372.0007448792458,6.915489132097719e-05,-2.2833804337096808e-05,-1.8189894035458565e-12,0.0,1.1368683772161603e-12,5.169878828456276e-24,340.0783695652173,70.0,0.0,255.0,0.0
38.0000000000004,35.72741561446312,51.275282701474886,1372.0007448149845,6.915489132097719e-05,-2.2833804337096808e-05,0.0,-5.684341886080801e-13,0.0,3.63797880709192e-11,340.06956521739124,70.0,0.0,255.0,0.0
38.050000000000395,35.72741906971723,51.27528156631034,1372.0007447488606,6.915489126413377e-05,-2.2833804337096808e-05,1.8189894035458565e-12,0.0,0.0,5.169878828456276e-24,340.0607608695652,70.0,0.0,255.0,0.0
38.1000000000004,35.72742252497214,51.275280431146264,1372.0007446827367,6.915489132097719e-05,-2.2833804337096808e-05,0.0,1.1368683772161603e-12,0.0,-3.637978807091403e-11,340.05195652173904,70.0,0.0,255.0,0.0
38.150000000000404,35.72742598022788,51.27527929598267,1372.0007446156815,6.91548913778206e-05,-2.2833804337096808e-05,-1.8189894035458565e-12,0.0,0.0,5.169878828456276e-24,340.043152173913,70.0,0.0,255.0,0.0
38.2000000000004,35.727429435484424,51.27527816081954,1372.000744550489,6.915489132097719e-05,-2.2833804337096808e-05,0.0,-1.1368683772161603e-12,0.0,3.63797880709192e-11,340.0343478260869,70.0,0.0,255.0,0.0
38.2500000000004,35.727432890741795,51.27527702565686,1372.000744484365,6.915489126413377e-05,-2.2833804337096808e-05,1.8189894035458565e-12,0.0,0.0,5.169878828456276e-24,340.02554347826083,70.0,0.0,255.0,0.0
38.3000000000004,35.727436345999976,51.27527589049468,1372.000744418241,6.915489132097719e-05,-2.2833804337096808e-05,0.0,5.684341886080801e-13,0.0,-3.637978807091403e-11,340.0167391304347,70.0,0.0,255.0,0.0
38.350000000000406,35.727439801258996,51.27527475533295,1372.0007443502545,6.915489132097719e-05,-2.2833804337096808e-05,-1.8189894035458565e-12,0.0,0.0,5.169878828456276e-24,340.00793478260863,70.0,0.0,255.0,0.0
38.400000000000404,35.72744325651882,51.2752736201717,1372.0007442841306,6.915489132097719e-05,-2.2833804337096808e-05,0.0,-5.684341886080801e-13,0.0,3.63797880709192e-11,339.99913043478256,70.0,0.0,255.0,0.0
38.4500000000004,35.72744671177947,51.275272485010916,1372.0007442180067,6.915489126413377e-05,-2.2833804337096808e-05,1.8189894035458565e-12,0.0,0.0,5.169878828456276e-24,339.99032608695643,70.0,0.0,255.0,0.0
38.500000000000405,35.72745016704092,51.2752713498506,1372.0007441500202,6.915489132097719e-05,-2.2833804337096808e-05,0.0,1.1368683772161603e-12,0.0,-3.637978807091403e-11,339.98152173913036,70.0,0.0,255.0,0.0
38.55000000000041,35.727453622303216,51.275270214690735,1372.000744082965,6.91548913778206e-05,-2.2833804337096808e-05,-1.8189894035458565e-12,0.0,0.0,5.169878828456276e-24,339.9727173913043,70.0,0.0,255.0,0.0
38.600000000000406,35.72745707756631,51.275269079531355,1372.0007440177724,6.915489132097719e-05,-2.2833804337096808e-05,0.0,-1.1368683772161603e-12,0.0,3.63797880709192e-11,339.9639130434782,70.0,0.0,255.0,0.0
38.650000000000404,35.72746053283023,51.27526794437245,1372.0007439469919,6.915489126413377e-05,-2.2833804337096808e-05,1.8189894035458565e-12,0.0,0.0,5.169878828456276e-24,339.9551086956521,70.0,0.0,255.0,0.0
38.70000000000041,35.727463988094954,51.275266809213996,1372.0007438827306,6.915489132097719e-05,-2.2833804337096808e-05,0.0,5.684341886080801e-13,0.0,-3.637978807091403e-11,339.946304347826,70.0,0.0,255.0,0.0
38.75000000000041,35.72746744336052,51.27526567405602,1372.0007438166067,6.915489132097719e-05,-2.2833804337096808e-05,-1.8189894035458565e-12,-5.684341886080801e-13,-1.1368683772161603e-12,5.169878828456276e-24,339.93749999999994,70.0,0.0,255.0,0.0
38.80000000000041,35.7274708986269,51.27526453889851,1372.0007437486202,6.915489126413377e-05,-2.2833804450783646e-05,0.0,-5.684341886080801e-13,0.0,3.63797880709192e-11,339.9286956521739,70.0,0.0,255.0,0.0
38.850000000000406,35.727474353894074,51.27526340374146,1372.000743681565,6.915489126413377e-05,-2.2833804337096808e-05,1.8189894035458565e-12,0.0,2.2737367544323206e-12,5.169878828456276e-24,339.91989130434774,70.0,0.0,255.0,0.0
38.90000000000041,35.727477809162096,51.275262268584896,1372.000743612647,6.915489126413377e-05,-2.283380422340997e-05,0.0,1.1368683772161603e-12,-1.1368683772161603e-12,-3.637978807091403e-11,339.9110869565217,70.0,0.0,255.0,0.0
38.950000000000415,35.727481264430914,51.275261133428785,1372.0007435465232,6.91548913778206e-05,-2.2833804450783646e-05,-1.8189894035458565e-12,0.0,-1.1368683772161603e-12,5.169878828456276e-24,339.9022826086956,70.0,0.0,255.0,0.0
39.00000000000041,35.72748471970056,51.275259998273135,1372.0007434803993,6.915489126413377e-05,-2.2833804337096808e-05,0.0,-1.1368683772161603e-12,1.1368683772161603e-12,3.63797880709192e-11,339.8934782608695,70.0,0.0,255.0,0.0
39.05000000000041,35.727488174971036,51.275258863117955,1372.000743413344,6.915489126413377e-05,-2.2833804337096808e-05,1.8189894035458565e-12,5.684341886080801e-13,-1.1368683772161603e-12,5.169878828456276e-24,339.8846739130434,70.0,0.0,255.0,0.0
39.10000000000041,35.727491630242326,51.27525772796324,1372.0007433453575,6.915489132097719e-05,-2.2833804450783646e-05,0.0,5.684341886080801e-13,0.0,-3.637978807091403e-11,339.87586956521733,70.0,0.0,255.0,0.0
39.15000000000042,35.72749508551443,51.27525659280901,1372.0007432764396,6.915489132097719e-05,-2.2833804337096808e-05,-1.8189894035458565e-12,0.0,1.1368683772161603e-12,5.169878828456276e-24,339.86706521739126,70.0,0.0,255.0,0.0
39.200000000000415,35.72749854078735,51.27525545765523,1372.0007432093844,6.915489132097719e-05,-2.2833804337096808e-05,0.0,-5.684341886080801e-13,0.0,3.63797880709192e-11,339.85826086956513,70.0,0.0,255.0,0.0
39.25000000000041,35.72750199606109,51.275254322501915,1372.0007431413978,6.915489126413377e-05,-2.2833804337096808e-05,1.8189894035458565e-12,-5.684341886080801e-13,0.0,5.169878828456276e-24,339.84945652173906,70.0,0.0,255.0,0.0
39.300000000000416,35.72750545133565,51.27525318734907,1372.0007430734113,6.915489126413377e-05,-2.2833804337096808e-05,0.0,1.1368683772161603e-12,0.0,-3.637978807091403e-11,339.840652173913,70.0,0.0,255.0,0.0
39.35000000000042,35.72750890661104,51.27525205219669,1372.0007430044934,6.91548913778206e-05,-2.2833804337096808e-05,-1.8189894035458565e-12,0.0,0.0,5.169878828456276e-24,339.8318478260869,70.0,0.0,255.0,0.0
39.40000000000042,35.727512361887236,51.27525091704478,1372.0007429374382,6.915489126413377e-05,-2.2833804337096808e-05,0.0,-1.1368683772161603e-12,0.0,3.63797880709192e-11,339.8230434782608,70.0,0.0,255.0,0.0
39.450000000000415,35.72751581716427,51.27524978189333,1372.0007428685203,6.915489126413377e-05,-2.2833804337096808e-05,1.8189894035458565e-12,5.684341886080801e-13,0.0,5.169878828456276e-24,339.8142391304347,70.0,0.0,255.0,0.0
39.50000000000042,35.72751927244211,51.27524864674234,1372.0007428005338,6.915489132097719e-05,-2.2833804337096808e-05,0.0,5.684341886080801e-13,0.0,-3.637978807091403e-11,339.80543478260864,70.0,0.0,255.0,0.0
39.55000000000042,35.72752272772076,51.27524751159183,1372.0007427325472,6.915489132097719e-05,-2.2833804337096808e-05,-1.8189894035458565e-12,0.0,0.0,5.169878828456276e-24,339.7966304347825,70.0,0.0,255.0,0.0
39.60000000000042,35.727526183000236,51.27524637644177,1372.0007426664233,6.915489132097719e-05,-2.2833804337096808e-05,0.0,-5.684341886080801e-13,0.0,3.63797880709192e-11,339.78782608695644,70.0,0.0,255.0,0.0
39.65000000000042,35.72752963828053,51.27524524129219,1372.0007425965741,6.915489126413377e-05,-2.2833804337096808e-05,1.8189894035458565e-12,-5.684341886080801e-13,0.0,5.169878828456276e-24,339.77902173913037,70.0,0.0,255.0,0.0
39.70000000000042,35.72753309356167,51.27524410614306,1372.0007425276563,6.915489126413377e-05,-2.2833804337096808e-05,0.0,1.1368683772161603e-12,-1.1368683772161603e-12,-3.637978807091403e-11,339.7702173913043,70.0,0.0,255.0,0.0
39.750000000000426,35.7275365488436,51.27524297099441,1372.000742460601,6.91548913778206e-05,-2.2833804450783646e-05,-1.8189894035458565e-12,0.0,0.0,5.169878828456276e-24,339.76141304347817,70.0,0.0,255.0,0.0
39.80000000000042,35.72754000412636,51.27524183584621,1372.0007423926145,6.915489126413377e-05,-2.2833804337096808e-05,0.0,-1.1368683772161603e-12,2.2737367544323206e-12,3.63797880709192e-11,339.7526086956521,70.0,0.0,255.0,0.0
39.85000000000042,35.72754345940994,51.27524070069848,1372.0007423227653,6.915489126413377e-05,-2.283380422340997e-05,1.8189894035458565e-12,5.684341886080801e-13,-1.1368683772161603e-12,5.169878828456276e-24,339.743804347826,70.0,0.0,255.0,0.0
39.900000000000425,35.72754691469433,51.27523956555123,1372.000742252916,6.915489132097719e-05,-2.2833804450783646e-05,0.0,5.684341886080801e-13,-1.1368683772161603e-12,-3.637978807091403e-11,339.73499999999996,70.0,0.0,255.0,0.0
39.95000000000043,35.72755036997955,51.275238430404414,1372.0007421849295,6.915489132097719e-05,-2.2833804337096808e-05,-1.8189894035458565e-12,0.0,1.1368683772161603e-12,5.169878828456276e-24,339.7261956521738,70.0,0.0,255.0,0.0
40.000000000000426,35.727553825265595,51.27523729525808,1372.0007421150804,6.915489132097719e-05,-2.2833804337096808e-05,0.0,-5.684341886080801e-13,-1.1368683772161603e-12,3.63797880709192e-11,339.71739130434776,70.0,0.0,255.0,0.0
40.05000000000042,35.72755728055244,51.27523616011221,1372.0007420480251,6.915489126413377e-05,-2.2833804450783646e-05,1.8189894035458565e-12,-5.684341886080801e-13,1.1368683772161603e-12,5.169878828456276e-24,339.7085869565217,70.0,0.0,255.0,0.0
40.10000000000043,35.727560735840136,51.27523502496679,1372.0007419791073,6.915489126413377e-05,-2.283380422340997e-05,0.0,0.0,1.1368683772161603e-12,-3.637978807091403e-11,339.69978260869556,70.0,0.0,255.0,0.0
40.15000000000043,35.727564191128614,51.27523388982185,1372.0007419101894,6.915489126413377e-05,-2.2833804337096808e-05,-1.8189894035458565e-12,0.0,-2.2737367544323206e-12,5.169878828456276e-24,339.6909782608695,70.0,0.0,255.0,0.0
40.20000000000043,35.72756764641793,51.27523275467736,1372.0007418403402,6.915489126413377e-05,-2.2833804450783646e-05,0.0,5.684341886080801e-13,0.0,3.63797880709192e-11,339.6821739130434,70.0,0.0,255.0,0.0
