t,lat,lon,alt,vx,vy,vz,ax,ay,az,yaw,mode,ledr,ledg,ledb
10.0,35.7255139,51.27594192,1370.0,6.915489123571107e-05,-2.28338043939399e-05,0.0,1.705322352513864e-12,1.1368618720031092e-12,0.0,345.0,70,255,0,0
10.05,35.725517357744565,51.27594077830978,1370.0,6.915489132097719e-05,-2.2833804337096808e-05,0.0,2.842269605438097e-13,5.684309360015627e-13,0.0,344.99119565217393,70,255,0,0
10.100000000000001,35.72552081548913,51.27593963661957,1370.0,6.915489126413377e-05,-2.2833804337096808e-05,0.0,0.0,-1.1368683772161603e-12,0.0,344.9823913043478,70,255,0,0
10.150000000000002,35.725524273233695,51.27593849492935,1370.0,6.915489132097719e-05,-2.2833804450783646e-05,0.0,5.684341886080801e-13,0.0,0.0,344.97358695652173,70,255,0,0
10.200000000000003,35.725527730978264,51.27593735323913,1370.0,6.915489132097719e-05,-2.2833804337096808e-05,0.0,0.0,2.2737367544323206e-12,0.0,344.96478260869566,70,255,0,0
10.250000000000004,35.725531188722826,51.27593621154892,1370.0,6.915489132097719e-05,-2.283380422340997e-05,0.0,0.0,0.0,0.0,344.9559782608696,70,255,0,0
10.300000000000004,35.725534646467395,51.2759350698587,1370.0,6.915489132097719e-05,-2.2833804337096808e-05,0.0,-5.684341886080801e-13,-1.1368683772161603e-12,0.0,344.94717391304346,70,255,0,0
10.350000000000005,35.72553810421196,51.27593392816848,1370.0,6.915489126413377e-05,-2.2833804337096808e-05,0.0,0.0,0.0,0.0,344.9383695652174,70,255,0,0
10.400000000000006,35.725541561956526,51.275932786478265,1370.0,6.915489132097719e-05,-2.2833804337096808e-05,0.0,5.684341886080801e-13,-1.1368683772161603e-12,0.0,344.9295652173913,70,255,0,0
10.450000000000006,35.72554501970109,51.275931644788045,1370.0,6.915489132097719e-05,-2.2833804450783646e-05,0.0,-5.684341886080801e-13,0.0,0.0,344.92076086956524,70,255,0,0
10.500000000000007,35.725548477445656,51.275930503097825,1370.0,6.915489126413377e-05,-2.2833804337096808e-05,0.0,0.0,1.1368683772161603e-12,0.0,344.9119565217391,70,255,0,0
10.550000000000008,35.72555193519022,51.27592936140761,1370.0,6.915489132097719e-05,-2.2833804337096808e-05,0.0,5.684341886080801e-13,0.0,0.0,344.90315217391304,70,255,0,0
10.600000000000009,35.72555539293479,51.27592821971739,1370.0,6.915489132097719e-05,-2.2833804337096808e-05,0.0,0.0,0.0,0.0,344.89434782608697,70,255,0,0
10.65000000000001,35.72555885067935,51.27592707802717,1370.0,6.915489132097719e-05,-2.2833804337096808e-05,0.0,0.0,0.0,0.0,344.88554347826084,70,255,0,0
10.70000000000001,35.72556230842392,51.27592593633696,1370.0,6.915489132097719e-05,-2.2833804337096808e-05,0.0,-5.684341886080801e-13,0.0,0.0,344.87673913043477,70,255,0,0
10.75000000000001,35.72556576616848,51.27592479464674,1370.0,6.915489126413377e-05,-2.2833804337096808e-05,0.0,0.0,0.0,0.0,344.8679347826087,70,255,0,0
10.800000000000011,35.72556922391305,51.27592365295652,1370.0,6.915489132097719e-05,-2.2833804337096808e-05,0.0,5.684341886080801e-13,0.0,0.0,344.8591304347826,70,255,0,0
10.850000000000012,35.72557268165761,51.27592251126631,1370.0,6.915489132097719e-05,-2.2833804337096808e-05,0.0,-5.684341886080801e-13,-1.1368683772161603e-12,0.0,344.8503260869565,70,255,0,0
10.900000000000013,35.72557613940218,51.27592136957609,1370.0,6.915489126413377e-05,-2.2833804450783646e-05,0.0,0.0,0.0,0.0,344.8415217391304,70,255,0,0
10.950000000000014,35.72557959714674,51.27592022788587,1370.0,6.915489132097719e-05,-2.2833804337096808e-05,0.0,5.684341886080801e-13,1.1368683772161603e-12,0.0,344.83271739130436,70,255,0,0
11.000000000000014,35.72558305489131,51.27591908619565,1370.0,6.915489132097719e-05,-2.2833804337096808e-05,0.0,0.0,0.0,0.0,344.8239130434783,70,255,0,0
11.050000000000015,35.72558651263587,51.27591794450544,1370.0,6.915489132097719e-05,-2.2833804337096808e-05,0.0,0.0,0.0,0.0,344.81510869565216,70,255,0,0
11.100000000000016,35.72558997038044,51.27591680281522,1370.0,6.915489132097719e-05,-2.2833804337096808e-05,0.0,-5.684341886080801e-13,0.0,0.0,344.8063043478261,70,255,0,0
11.150000000000016,35.725593428125,51.275915661125,1370.0,6.915489126413377e-05,-2.2833804337096808e-05,0.0,0.0,0.0,0.0,344.7975,70,255,0,0
11.200000000000017,35.72559688586957,51.275914519434785,1370.0,6.915489132097719e-05,-2.2833804337096808e-05,0.0,5.684341886080801e-13,-1.1368683772161603e-12,0.0,344.7886956521739,70,255,0,0
11.250000000000018,35.72560034361413,51.275913377744565,1370.0,6.915489132097719e-05,-2.2833804450783646e-05,0.0,-5.684341886080801e-13,0.0,0.0,344.7798913043478,70,255,0,0
11.300000000000018,35.7256038013587,51.275912236054346,1370.0,6.915489126413377e-05,-2.2833804337096808e-05,0.0,0.0,1.1368683772161603e-12,0.0,344.77108695652174,70,255,0,0
11.35000000000002,35.72560725910326,51.27591109436413,1370.0,6.915489132097719e-05,-2.2833804337096808e-05,0.0,5.684341886080801e-13,0.0,0.0,344.76228260869567,70,255,0,0
11.40000000000002,35.72561071684783,51.27590995267391,1370.0,6.915489132097719e-05,-2.2833804337096808e-05,0.0,-1.1368683772161603e-12,1.1368683772161603e-12,0.0,344.75347826086954,70,255,0,0
11.45000000000002,35.725614174592394,51.275908810983694,1370.0,6.915489120729035e-05,-2.283380422340997e-05,0.0,0.0,0.0,0.0,344.74467391304347,70,255,0,0
11.500000000000021,35.725617632336956,51.27590766929348,1370.0,6.915489132097719e-05,-2.2833804337096808e-05,0.0,1.1368683772161603e-12,-2.2737367544323206e-12,0.0,344.7358695652174,70,255,0,0
11.550000000000022,35.725621090081525,51.27590652760326,1370.0,6.915489132097719e-05,-2.2833804450783646e-05,0.0,0.0,0.0,0.0,344.7270652173913,70,255,0,0
11.600000000000023,35.72562454782609,51.27590538591304,1370.0,6.915489132097719e-05,-2.2833804337096808e-05,0.0,0.0,1.1368683772161603e-12,0.0,344.7182608695652,70,255,0,0
11.650000000000023,35.725628005570655,51.27590424422283,1370.0,6.915489132097719e-05,-2.2833804337096808e-05,0.0,-5.684341886080801e-13,-1.1368683772161603e-12,0.0,344.7094565217391,70,255,0,0
11.700000000000024,35.72563146331522,51.27590310253261,1370.0,6.915489126413377e-05,-2.2833804450783646e-05,0.0,0.0,0.0,0.0,344.70065217391306,70,255,0,0
11.750000000000025,35.725634921059786,51.27590196084239,1370.0,6.915489132097719e-05,-2.2833804337096808e-05,0.0,5.684341886080801e-13,2.2737367544323206e-12,0.0,344.6918478260869,70,255,0,0
11.800000000000026,35.72563837880435,51.27590081915218,1370.0,6.915489132097719e-05,-2.283380422340997e-05,0.0,-5.684341886080801e-13,0.0,0.0,344.68304347826086,70,255,0,0
11.850000000000026,35.72564183654892,51.27589967746196,1370.0,6.915489126413377e-05,-2.2833804337096808e-05,0.0,0.0,-1.1368683772161603e-12,0.0,344.6742391304348,70,255,0,0
11.900000000000027,35.72564529429348,51.27589853577174,1370.0,6.915489132097719e-05,-2.2833804337096808e-05,0.0,5.684341886080801e-13,0.0,0.0,344.6654347826087,70,255,0,0
11.950000000000028,35.72564875203805,51.275897394081525,1370.0,6.915489132097719e-05,-2.2833804337096808e-05,0.0,0.0,-1.1368683772161603e-12,0.0,344.6566304347826,70,255,0,0
12.000000000000028,35.72565220978261,51.275896252391306,1370.0,6.915489132097719e-05,-2.2833804450783646e-05,0.0,0.0,0.0,0.0,344.6478260869565,70,255,0,0
12.05000000000003,35.72565566752718,51.275895110701086,1370.0,6.915489132097719e-05,-2.2833804337096808e-05,0.0,-5.684341886080801e-13,1.1368683772161603e-12,0.0,344.63902173913044,70,255,0,0
12.10000000000003,35.72565912527174,51.27589396901087,1370.0,6.915489126413377e-05,-2.2833804337096808e-05,0.0,0.0,0.0,0.0,344.63021739130437,70,255,0,0
12.15000000000003,35.72566258301631,51.275892827320654,1370.0,6.915489132097719e-05,-2.2833804337096808e-05,0.0,5.684341886080801e-13,0.0,0.0,344.62141304347824,70,255,0,0
12.200000000000031,35.72566604076087,51.275891685630434,1370.0,6.915489132097719e-05,-2.2833804337096808e-05,0.0,-5.684341886080801e-13,0.0,0.0,344.61260869565217,70,255,0,0
12.250000000000032,35.72566949850544,51.27589054394022,1370.0,6.915489126413377e-05,-2.2833804337096808e-05,0.0,0.0,0.0,0.0,344.6038043478261,70,255,0,0
12.300000000000033,35.72567295625,51.27588940225,1370.0,6.915489132097719e-05,-2.2833804337096808e-05,0.0,5.684341886080801e-13,0.0,0.0,344.59499999999997,70,255,0,0
12.350000000000033,35.72567641399457,51.27588826055978,1370.0,6.915489132097719e-05,-2.2833804337096808e-05,0.0,0.0,0.0,0.0,344.5861956521739,70,255,0,0
12.400000000000034,35.72567987173913,51.27588711886957,1370.0,6.915489132097719e-05,-2.2833804337096808e-05,0.0,0.0,-1.1368683772161603e-12,0.0,344.5773913043478,70,255,0,0
12.450000000000035,35.7256833294837,51.27588597717935,1370.0,6.915489132097719e-05,-2.2833804450783646e-05,0.0,-5.684341886080801e-13,0.0,0.0,344.56858695652176,70,255,0,0
12.500000000000036,35.72568678722826,51.27588483548913,1370.0,6.915489126413377e-05,-2.2833804337096808e-05,0.0,0.0,1.1368683772161603e-12,0.0,344.5597826086956,70,255,0,0
12.550000000000036,35.72569024497283,51.27588369379892,1370.0,6.915489132097719e-05,-2.2833804337096808e-05,0.0,5.684341886080801e-13,0.0,0.0,344.55097826086956,70,255,0,0
12.600000000000037,35.72569370271739,51.2758825521087,1370.0,6.915489132097719e-05,-2.2833804337096808e-05,0.0,-5.684341886080801e-13,1.1368683772161603e-12,0.0,344.5421739130435,70,255,0,0
12.650000000000038,35.72569716046196,51.27588141041848,1370.0,6.915489126413377e-05,-2.283380422340997e-05,0.0,0.0,0.0,0.0,344.5333695652174,70,255,0,0
12.700000000000038,35.725700618206524,51.275880268728265,1370.0,6.915489132097719e-05,-2.2833804337096808e-05,0.0,5.684341886080801e-13,-2.2737367544323206e-12,0.0,344.5245652173913,70,255,0,0
12.750000000000039,35.72570407595109,51.275879127038046,1370.0,6.915489132097719e-05,-2.2833804450783646e-05,0.0,0.0,-1.1368683772161603e-12,0.0,344.5157608695652,70,255,0,0
12.80000000000004,35.725707533695655,51.275877985347826,1370.0,6.915489132097719e-05,-2.2833804450783646e-05,0.0,0.0,1.1368683772161603e-12,0.0,344.50695652173914,70,255,0,0
12.85000000000004,35.72571099144022,51.275876843657606,1370.0,6.915489132097719e-05,-2.2833804337096808e-05,0.0,-1.1368683772161603e-12,1.1368683772161603e-12,0.0,344.498152173913,70,255,0,0
12.900000000000041,35.725714449184785,51.275875701967394,1370.0,6.915489120729035e-05,-2.2833804337096808e-05,0.0,0.0,0.0,0.0,344.48934782608694,70,255,0,0
12.950000000000042,35.72571790692935,51.275874560277174,1370.0,6.915489132097719e-05,-2.2833804337096808e-05,0.0,1.1368683772161603e-12,1.1368683772161603e-12,0.0,344.48054347826087,70,255,0,0
13.000000000000043,35.725721364673916,51.275873418586954,1370.0,6.915489132097719e-05,-2.283380422340997e-05,0.0,-5.684341886080801e-13,0.0,0.0,344.4717391304348,70,255,0,0
13.050000000000043,35.72572482241848,51.27587227689674,1370.0,6.915489126413377e-05,-2.2833804337096808e-05,0.0,0.0,-2.2737367544323206e-12,0.0,344.46293478260867,70,255,0,0
13.100000000000044,35.72572828016305,51.27587113520652,1370.0,6.915489132097719e-05,-2.2833804450783646e-05,0.0,5.684341886080801e-13,0.0,0.0,344.4541304347826,70,255,0,0
13.150000000000045,35.72573173790761,51.2758699935163,1370.0,6.915489132097719e-05,-2.2833804337096808e-05,0.0,-5.684341886080801e-13,1.1368683772161603e-12,0.0,344.4453260869565,70,255,0,0
13.200000000000045,35.72573519565218,51.27586885182609,1370.0,6.915489126413377e-05,-2.2833804337096808e-05,0.0,0.0,-1.1368683772161603e-12,0.0,344.43652173913046,70,255,0,0
13.250000000000046,35.72573865339674,51.27586771013587,1370.0,6.915489132097719e-05,-2.2833804450783646e-05,0.0,5.684341886080801e-13,0.0,0.0,344.4277173913043,70,255,0,0
13.300000000000047,35.72574211114131,51.27586656844565,1370.0,6.915489132097719e-05,-2.2833804337096808e-05,0.0,0.0,2.2737367544323206e-12,0.0,344.41891304347826,70,255,0,0
13.350000000000048,35.72574556888587,51.27586542675544,1370.0,6.915489132097719e-05,-2.283380422340997e-05,0.0,0.0,0.0,0.0,344.4101086956522,70,255,0,0
13.400000000000048,35.72574902663044,51.27586428506522,1370.0,6.915489132097719e-05,-2.2833804337096808e-05,0.0,-5.684341886080801e-13,-1.1368683772161603e-12,0.0,344.40130434782606,70,255,0,0
13.450000000000049,35.725752484375,51.275863143375,1370.0,6.915489126413377e-05,-2.2833804337096808e-05,0.0,0.0,0.0,0.0,344.3925,70,255,0,0
13.50000000000005,35.72575594211957,51.275862001684786,1370.0,6.915489132097719e-05,-2.2833804337096808e-05,0.0,5.684341886080801e-13,-1.1368683772161603e-12,0.0,344.3836956521739,70,255,0,0
13.55000000000005,35.72575939986413,51.275860859994566,1370.0,6.915489132097719e-05,-2.2833804450783646e-05,0.0,-5.684341886080801e-13,0.0,0.0,344.37489130434784,70,255,0,0
13.600000000000051,35.7257628576087,51.275859718304346,1370.0,6.915489126413377e-05,-2.2833804337096808e-05,0.0,0.0,1.1368683772161603e-12,0.0,344.3660869565217,70,255,0,0
13.650000000000052,35.72576631535326,51.275858576614134,1370.0,6.915489132097719e-05,-2.2833804337096808e-05,0.0,5.684341886080801e-13,0.0,0.0,344.35728260869564,70,255,0,0
13.700000000000053,35.72576977309783,51.275857434923914,1370.0,6.915489132097719e-05,-2.2833804337096808e-05,0.0,0.0,0.0,0.0,344.34847826086957,70,255,0,0
13.750000000000053,35.72577323084239,51.275856293233694,1370.0,6.915489132097719e-05,-2.2833804337096808e-05,0.0,0.0,0.0,0.0,344.33967391304344,70,255,0,0
13.800000000000054,35.72577668858696,51.27585515154348,1370.0,6.915489132097719e-05,-2.2833804337096808e-05,0.0,-5.684341886080801e-13,0.0,0.0,344.33086956521737,70,255,0,0
13.850000000000055,35.72578014633152,51.27585400985326,1370.0,6.915489126413377e-05,-2.2833804337096808e-05,0.0,0.0,0.0,0.0,344.3220652173913,70,255,0,0
13.900000000000055,35.72578360407609,51.27585286816304,1370.0,6.915489132097719e-05,-2.2833804337096808e-05,0.0,5.684341886080801e-13,0.0,0.0,344.3132608695652,70,255,0,0
13.950000000000056,35.725787061820654,51.27585172647283,1370.0,6.915489132097719e-05,-2.2833804337096808e-05,0.0,-5.684341886080801e-13,-1.1368683772161603e-12,0.0,344.3044565217391,70,255,0,0
14.000000000000057,35.72579051956522,51.27585058478261,1370.0,6.915489126413377e-05,-2.2833804450783646e-05,0.0,0.0,0.0,0.0,344.295652173913,70,255,0,0
14.050000000000058,35.725793977309785,51.27584944309239,1370.0,6.915489132097719e-05,-2.2833804337096808e-05,0.0,5.684341886080801e-13,1.1368683772161603e-12,0.0,344.28684782608696,70,255,0,0
14.100000000000058,35.72579743505435,51.27584830140218,1370.0,6.915489132097719e-05,-2.2833804337096808e-05,0.0,0.0,0.0,0.0,344.2780434782609,70,255,0,0
14.150000000000059,35.725800892798915,51.27584715971196,1370.0,6.915489132097719e-05,-2.2833804337096808e-05,0.0,0.0,1.1368683772161603e-12,0.0,344.26923913043476,70,255,0,0
14.20000000000006,35.725804350543484,51.27584601802174,1370.0,6.915489132097719e-05,-2.283380422340997e-05,0.0,-5.684341886080801e-13,0.0,0.0,344.2604347826087,70,255,0,0
14.25000000000006,35.725807808288046,51.275844876331526,1370.0,6.915489126413377e-05,-2.2833804337096808e-05,0.0,0.0,-2.2737367544323206e-12,0.0,344.2516304347826,70,255,0,0
14.300000000000061,35.725811266032615,51.275843734641306,1370.0,6.915489132097719e-05,-2.2833804450783646e-05,0.0,0.0,0.0,0.0,344.2428260869565,70,255,0,0
14.350000000000062,35.72581472377718,51.275842592951086,1370.0,6.915489126413377e-05,-2.2833804337096808e-05,0.0,-5.684341886080801e-13,1.1368683772161603e-12,0.0,344.2340217391304,70,255,0,0
14.400000000000063,35.72581818152174,51.275841451260874,1370.0,6.915489126413377e-05,-2.2833804337096808e-05,0.0,5.684341886080801e-13,-1.1368683772161603e-12,0.0,344.22521739130434,70,255,0,0
14.450000000000063,35.72582163926631,51.275840309570654,1370.0,6.915489132097719e-05,-2.2833804450783646e-05,0.0,5.684341886080801e-13,0.0,0.0,344.21641304347827,70,255,0,0
14.500000000000064,35.72582509701087,51.275839167880434,1370.0,6.915489132097719e-05,-2.2833804337096808e-05,0.0,-5.684341886080801e-13,2.2737367544323206e-12,0.0,344.20760869565214,70,255,0,0
14.550000000000065,35.72582855475544,51.27583802619022,1370.0,6.915489126413377e-05,-2.283380422340997e-05,0.0,0.0,0.0,0.0,344.19880434782607,70,255,0,0
14.600000000000065,35.7258320125,51.2758368845,1370.0,6.915489132097719e-05,-2.2833804337096808e-05,0.0,5.684341886080801e-13,-2.2737367544323206e-12,0.0,344.19,70,255,0,0
14.650000000000066,35.72583547024457,51.27583574280978,1370.0,6.915489132097719e-05,-2.2833804450783646e-05,0.0,0.0,0.0,0.0,344.1811956521739,70,255,0,0
14.700000000000067,35.72583892798913,51.27583460111956,1370.0,6.915489132097719e-05,-2.2833804337096808e-05,0.0,0.0,1.1368683772161603e-12,0.0,344.1723913043478,70,255,0,0
14.750000000000068,35.7258423857337,51.27583345942935,1370.0,6.915489132097719e-05,-2.2833804337096808e-05,0.0,-5.684341886080801e-13,-1.1368683772161603e-12,0.0,344.1635869565217,70,255,0,0
14.800000000000068,35.72584584347826,51.27583231773913,1370.0,6.915489126413377e-05,-2.2833804450783646e-05,0.0,0.0,0.0,0.0,344.15478260869565,70,255,0,0
14.850000000000069,35.72584930122283,51.27583117604891,1370.0,6.915489132097719e-05,-2.2833804337096808e-05,0.0,5.684341886080801e-13,2.2737367544323206e-12,0.0,344.1459782608695,70,255,0,0
14.90000000000007,35.72585275896739,51.2758300343587,1370.0,6.915489132097719e-05,-2.283380422340997e-05,0.0,-5.684341886080801e-13,0.0,0.0,344.13717391304345,70,255,0,0
14.95000000000007,35.72585621671196,51.27582889266848,1370.0,6.915489126413377e-05,-2.2833804337096808e-05,0.0,0.0,-1.1368683772161603e-12,0.0,344.1283695652174,70,255,0,0
15.000000000000071,35.72585967445652,51.27582775097826,1370.0,6.915489132097719e-05,-2.2833804337096808e-05,0.0,5.684341886080801e-13,0.0,0.0,344.1195652173913,70,255,0,0
15.050000000000072,35.72586313220109,51.275826609288046,1370.0,6.915489132097719e-05,-2.2833804337096808e-05,0.0,0.0,-1.1368683772161603e-12,0.0,344.1107608695652,70,255,0,0
15.100000000000072,35.72586658994565,51.275825467597826,1370.0,6.915489132097719e-05,-2.2833804450783646e-05,0.0,0.0,0.0,0.0,344.1019565217391,70,255,0,0
15.150000000000073,35.72587004769022,51.27582432590761,1370.0,6.915489132097719e-05,-2.2833804337096808e-05,0.0,-5.684341886080801e-13,1.1368683772161603e-12,0.0,344.09315217391304,70,255,0,0
15.200000000000074,35.725873505434784,51.275823184217394,1370.0,6.915489126413377e-05,-2.2833804337096808e-05,0.0,0.0,0.0,0.0,344.08434782608697,70,255,0,0
15.250000000000075,35.72587696317935,51.275822042527174,1370.0,6.915489132097719e-05,-2.2833804337096808e-05,0.0,5.684341886080801e-13,0.0,0.0,344.07554347826084,70,255,0,0
15.300000000000075,35.725880420923914,51.275820900836955,1370.0,6.915489132097719e-05,-2.2833804337096808e-05,0.0,-5.684341886080801e-13,0.0,0.0,344.06673913043477,70,255,0,0
15.350000000000076,35.72588387866848,51.27581975914674,1370.0,6.915489126413377e-05,-2.2833804337096808e-05,0.0,0.0,0.0,0.0,344.0579347826087,70,255,0,0
15.400000000000077,35.725887336413045,51.27581861745652,1370.0,6.915489132097719e-05,-2.2833804337096808e-05,0.0,5.684341886080801e-13,0.0,0.0,344.04913043478257,70,255,0,0
15.450000000000077,35.725890794157614,51.2758174757663,1370.0,6.915489132097719e-05,-2.2833804337096808e-05,0.0,0.0,0.0,0.0,344.0403260869565,70,255,0,0
15.500000000000078,35.725894251902176,51.27581633407609,1370.0,6.915489132097719e-05,-2.2833804337096808e-05,0.0,0.0,-1.1368683772161603e-12,0.0,344.0315217391304,70,255,0,0
15.550000000000079,35.725897709646745,51.27581519238587,1370.0,6.915489132097719e-05,-2.2833804450783646e-05,0.0,-5.684341886080801e-13,0.0,0.0,344.02271739130435,70,255,0,0
15.60000000000008,35.72590116739131,51.27581405069565,1370.0,6.915489126413377e-05,-2.2833804337096808e-05,0.0,0.0,1.1368683772161603e-12,0.0,344.0139130434782,70,255,0,0
15.65000000000008,35.725904625135875,51.27581290900544,1370.0,6.915489132097719e-05,-2.2833804337096808e-05,0.0,5.684341886080801e-13,0.0,0.0,344.00510869565215,70,255,0,0
15.700000000000081,35.72590808288044,51.27581176731522,1370.0,6.915489132097719e-05,-2.2833804337096808e-05,0.0,-5.684341886080801e-13,1.1368683772161603e-12,0.0,343.9963043478261,70,255,0,0
15.750000000000082,35.725911540625006,51.275810625625,1370.0,6.915489126413377e-05,-2.283380422340997e-05,0.0,-5.684341886080801e-13,0.0,0.0,343.9875,70,255,0,0
15.800000000000082,35.72591499836957,51.275809483934786,1370.0,6.915489126413377e-05,-2.2833804337096808e-05,0.0,5.684341886080801e-13,-2.2737367544323206e-12,0.0,343.9786956521739,70,255,0,0
15.850000000000083,35.72591845611413,51.27580834224457,1370.0,6.915489132097719e-05,-2.2833804450783646e-05,0.0,0.0,0.0,0.0,343.9698913043478,70,255,0,0
15.900000000000084,35.7259219138587,51.27580720055435,1370.0,6.915489126413377e-05,-2.2833804337096808e-05,0.0,0.0,1.1368683772161603e-12,0.0,343.96108695652174,70,255,0,0
15.950000000000085,35.72592537160326,51.275806058864134,1370.0,6.915489132097719e-05,-2.2833804337096808e-05,0.0,5.684341886080801e-13,-1.1368683772161603e-12,0.0,343.9522826086956,70,255,0,0
16.000000000000085,35.72592882934783,51.275804917173915,1370.0,6.915489132097719e-05,-2.2833804450783646e-05,0.0,0.0,0.0,0.0,343.94347826086954,70,255,0,0
16.050000000000086,35.72593228709239,51.275803775483695,1370.0,6.915489132097719e-05,-2.2833804337096808e-05,0.0,0.0,2.2737367544323206e-12,0.0,343.93467391304347,70,255,0,0
16.100000000000087,35.72593574483696,51.27580263379348,1370.0,6.915489132097719e-05,-2.283380422340997e-05,0.0,-5.684341886080801e-13,0.0,0.0,343.9258695652174,70,255,0,0
16.150000000000087,35.72593920258152,51.27580149210326,1370.0,6.915489126413377e-05,-2.2833804337096808e-05,0.0,0.0,-1.1368683772161603e-12,0.0,343.91706521739127,70,255,0,0
16.200000000000088,35.72594266032609,51.27580035041304,1370.0,6.915489132097719e-05,-2.2833804337096808e-05,0.0,5.684341886080801e-13,0.0,0.0,343.9082608695652,70,255,0,0
16.25000000000009,35.72594611807065,51.27579920872283,1370.0,6.915489132097719e-05,-2.2833804337096808e-05,0.0,-5.684341886080801e-13,-1.1368683772161603e-12,0.0,343.8994565217391,70,255,0,0
16.30000000000009,35.72594957581522,51.27579806703261,1370.0,6.915489126413377e-05,-2.2833804450783646e-05,0.0,0.0,0.0,0.0,343.89065217391305,70,255,0,0
16.35000000000009,35.72595303355978,51.27579692534239,1370.0,6.915489132097719e-05,-2.2833804337096808e-05,0.0,5.684341886080801e-13,1.1368683772161603e-12,0.0,343.8818478260869,70,255,0,0
16.40000000000009,35.72595649130435,51.27579578365218,1370.0,6.915489132097719e-05,-2.2833804337096808e-05,0.0,0.0,0.0,0.0,343.87304347826085,70,255,0,0
16.45000000000009,35.725959949048914,51.27579464196196,1370.0,6.915489132097719e-05,-2.2833804337096808e-05,0.0,0.0,0.0,0.0,343.8642391304348,70,255,0,0
16.500000000000092,35.72596340679348,51.27579350027174,1370.0,6.915489132097719e-05,-2.2833804337096808e-05,0.0,-5.684341886080801e-13,0.0,0.0,343.85543478260865,70,255,0,0
16.550000000000093,35.725966864538044,51.275792358581526,1370.0,6.915489126413377e-05,-2.2833804337096808e-05,0.0,0.0,0.0,0.0,343.8466304347826,70,255,0,0
16.600000000000094,35.72597032228261,51.27579121689131,1370.0,6.915489132097719e-05,-2.2833804337096808e-05,0.0,5.684341886080801e-13,-1.1368683772161603e-12,0.0,343.8378260869565,70,255,0,0
16.650000000000095,35.725973780027175,51.27579007520109,1370.0,6.915489132097719e-05,-2.2833804450783646e-05,0.0,-5.684341886080801e-13,0.0,0.0,343.82902173913044,70,255,0,0
16.700000000000095,35.725977237771744,51.27578893351087,1370.0,6.915489126413377e-05,-2.2833804337096808e-05,0.0,0.0,1.1368683772161603e-12,0.0,343.8202173913043,70,255,0,0
16.750000000000096,35.725980695516306,51.275787791820655,1370.0,6.915489132097719e-05,-2.2833804337096808e-05,0.0,5.684341886080801e-13,0.0,0.0,343.81141304347824,70,255,0,0
16.800000000000097,35.725984153260875,51.275786650130435,1370.0,6.915489132097719e-05,-2.2833804337096808e-05,0.0,0.0,0.0,0.0,343.80260869565217,70,255,0,0
16.850000000000097,35.725987611005436,51.275785508440215,1370.0,6.915489132097719e-05,-2.2833804337096808e-05,0.0,0.0,0.0,0.0,343.7938043478261,70,255,0,0
16.900000000000098,35.725991068750005,51.27578436675,1370.0,6.915489132097719e-05,-2.2833804337096808e-05,0.0,-5.684341886080801e-13,0.0,0.0,343.78499999999997,70,255,0,0
16.9500000000001,35.72599452649457,51.27578322505978,1370.0,6.915489126413377e-05,-2.2833804337096808e-05,0.0,0.0,0.0,0.0,343.7761956521739,70,255,0,0
17.0000000000001,35.725997984239136,51.27578208336956,1370.0,6.915489132097719e-05,-2.2833804337096808e-05,0.0,5.684341886080801e-13,0.0,0.0,343.7673913043478,70,255,0,0
17.0500000000001,35.7260014419837,51.27578094167935,1370.0,6.915489132097719e-05,-2.2833804337096808e-05,0.0,-5.684341886080801e-13,-1.1368683772161603e-12,0.0,343.7585869565217,70,255,0,0
17.1000000000001,35.72600489972827,51.27577979998913,1370.0,6.915489126413377e-05,-2.2833804450783646e-05,0.0,-5.684341886080801e-13,0.0,0.0,343.7497826086956,70,255,0,0
17.1500000000001,35.72600835747283,51.27577865829891,1370.0,6.915489126413377e-05,-2.2833804337096808e-05,0.0,5.684341886080801e-13,1.1368683772161603e-12,0.0,343.74097826086955,70,255,0,0
17.200000000000102,35.72601181521739,51.2757775166087,1370.0,6.915489132097719e-05,-2.2833804337096808e-05,0.0,0.0,0.0,0.0,343.7321739130435,70,255,0,0
17.250000000000103,35.72601527296196,51.27577637491848,1370.0,6.915489126413377e-05,-2.2833804337096808e-05,0.0,0.0,1.1368683772161603e-12,0.0,343.72336956521735,70,255,0,0
17.300000000000104,35.72601873070652,51.27577523322826,1370.0,6.915489132097719e-05,-2.283380422340997e-05,0.0,5.684341886080801e-13,0.0,0.0,343.7145652173913,70,255,0,0
17.350000000000104,35.72602218845109,51.27577409153805,1370.0,6.915489132097719e-05,-2.2833804337096808e-05,0.0,0.0,-2.2737367544323206e-12,0.0,343.7057608695652,70,255,0,0
17.400000000000105,35.72602564619565,51.27577294984783,1370.0,6.915489132097719e-05,-2.2833804450783646e-05,0.0,0.0,0.0,0.0,343.69695652173914,70,255,0,0
17.450000000000106,35.72602910394022,51.27577180815761,1370.0,6.915489132097719e-05,-2.2833804337096808e-05,0.0,-5.684341886080801e-13,1.1368683772161603e-12,0.0,343.688152173913,70,255,0,0
17.500000000000107,35.72603256168478,51.275770666467395,1370.0,6.915489126413377e-05,-2.2833804337096808e-05,0.0,0.0,-1.1368683772161603e-12,0.0,343.67934782608694,70,255,0,0
17.550000000000107,35.72603601942935,51.275769524777175,1370.0,6.915489132097719e-05,-2.2833804450783646e-05,0.0,5.684341886080801e-13,0.0,0.0,343.67054347826087,70,255,0,0
17.600000000000108,35.72603947717391,51.275768383086955,1370.0,6.915489132097719e-05,-2.2833804337096808e-05,0.0,-5.684341886080801e-13,2.2737367544323206e-12,0.0,343.66173913043474,70,255,0,0
17.65000000000011,35.72604293491848,51.27576724139674,1370.0,6.915489126413377e-05,-2.283380422340997e-05,0.0,0.0,0.0,0.0,343.65293478260867,70,255,0,0
17.70000000000011,35.726046392663044,51.27576609970652,1370.0,6.915489132097719e-05,-2.2833804337096808e-05,0.0,5.684341886080801e-13,-1.1368683772161603e-12,0.0,343.6441304347826,70,255,0,0
17.75000000000011,35.72604985040761,51.2757649580163,1370.0,6.915489132097719e-05,-2.2833804337096808e-05,0.0,0.0,0.0,0.0,343.6353260869565,70,255,0,0
17.80000000000011,35.726053308152174,51.27576381632609,1370.0,6.915489132097719e-05,-2.2833804337096808e-05,0.0,0.0,-1.1368683772161603e-12,0.0,343.6265217391304,70,255,0,0
17.85000000000011,35.72605676589674,51.27576267463587,1370.0,6.915489132097719e-05,-2.2833804450783646e-05,0.0,-5.684341886080801e-13,0.0,0.0,343.6177173913043,70,255,0,0
17.900000000000112,35.726060223641305,51.27576153294565,1370.0,6.915489126413377e-05,-2.2833804337096808e-05,0.0,0.0,1.1368683772161603e-12,0.0,343.60891304347825,70,255,0,0
17.950000000000113,35.726063681385874,51.27576039125544,1370.0,6.915489132097719e-05,-2.2833804337096808e-05,0.0,5.684341886080801e-13,0.0,0.0,343.6001086956522,70,255,0,0
18.000000000000114,35.726067139130436,51.27575924956522,1370.0,6.915489132097719e-05,-2.2833804337096808e-05,0.0,-5.684341886080801e-13,0.0,0.0,343.59130434782605,70,255,0,0
18.050000000000114,35.726070596875005,51.275758107875,1370.0,6.915489126413377e-05,-2.2833804337096808e-05,0.0,0.0,0.0,0.0,343.5825,70,255,0,0
18.100000000000115,35.726074054619566,51.27575696618479,1370.0,6.915489132097719e-05,-2.2833804337096808e-05,0.0,5.684341886080801e-13,0.0,0.0,343.5736956521739,70,255,0,0
18.150000000000116,35.726077512364135,51.27575582449457,1370.0,6.915489132097719e-05,-2.2833804337096808e-05,0.0,0.0,0.0,0.0,343.5648913043478,70,255,0,0
18.200000000000117,35.7260809701087,51.27575468280435,1370.0,6.915489132097719e-05,-2.2833804337096808e-05,0.0,0.0,0.0,0.0,343.5560869565217,70,255,0,0
18.250000000000117,35.726084427853266,51.275753541114135,1370.0,6.915489132097719e-05,-2.2833804337096808e-05,0.0,-5.684341886080801e-13,-1.1368683772161603e-12,0.0,343.54728260869564,70,255,0,0
18.300000000000118,35.72608788559783,51.275752399423915,1370.0,6.915489126413377e-05,-2.2833804450783646e-05,0.0,0.0,0.0,0.0,343.53847826086957,70,255,0,0
18.35000000000012,35.7260913433424,51.275751257733695,1370.0,6.915489132097719e-05,-2.2833804337096808e-05,0.0,5.684341886080801e-13,1.1368683772161603e-12,0.0,343.52967391304344,70,255,0,0
18.40000000000012,35.72609480108696,51.27575011604348,1370.0,6.915489132097719e-05,-2.2833804337096808e-05,0.0,-5.684341886080801e-13,0.0,0.0,343.52086956521737,70,255,0,0
18.45000000000012,35.72609825883153,51.27574897435326,1370.0,6.915489126413377e-05,-2.2833804337096808e-05,0.0,0.0,0.0,0.0,343.5120652173913,70,255,0,0
18.50000000000012,35.72610171657609,51.27574783266304,1370.0,6.915489132097719e-05,-2.2833804337096808e-05,0.0,5.684341886080801e-13,0.0,0.0,343.5032608695652,70,255,0,0
18.55000000000012,35.72610517432066,51.275746690972824,1370.0,6.915489132097719e-05,-2.2833804337096808e-05,0.0,-1.1368683772161603e-12,0.0,0.0,343.4944565217391,70,255,0,0
18.600000000000122,35.72610863206522,51.27574554928261,1370.0,6.915489120729035e-05,-2.2833804337096808e-05,0.0,0.0,-1.1368683772161603e-12,0.0,343.485652173913,70,255,0,0
18.650000000000123,35.72611208980978,51.27574440759239,1370.0,6.915489132097719e-05,-2.2833804450783646e-05,0.0,1.1368683772161603e-12,0.0,0.0,343.47684782608695,70,255,0,0
18.700000000000124,35.72611554755435,51.27574326590217,1370.0,6.915489132097719e-05,-2.2833804337096808e-05,0.0,0.0,1.1368683772161603e-12,0.0,343.4680434782608,70,255,0,0
18.750000000000124,35.72611900529891,51.27574212421196,1370.0,6.915489132097719e-05,-2.2833804337096808e-05,0.0,0.0,0.0,0.0,343.45923913043475,70,255,0,0
18.800000000000125,35.72612246304348,51.27574098252174,1370.0,6.915489132097719e-05,-2.2833804337096808e-05,0.0,-5.684341886080801e-13,1.1368683772161603e-12,0.0,343.4504347826087,70,255,0,0
18.850000000000126,35.72612592078804,51.27573984083152,1370.0,6.915489126413377e-05,-2.283380422340997e-05,0.0,0.0,0.0,0.0,343.4416304347826,70,255,0,0
18.900000000000126,35.72612937853261,51.27573869914131,1370.0,6.915489132097719e-05,-2.2833804337096808e-05,0.0,5.684341886080801e-13,-2.2737367544323206e-12,0.0,343.4328260869565,70,255,0,0
18.950000000000127,35.72613283627717,51.27573755745109,1370.0,6.915489132097719e-05,-2.2833804450783646e-05,0.0,-5.684341886080801e-13,0.0,0.0,343.4240217391304,70,255,0,0
19.000000000000128,35.72613629402174,51.27573641576087,1370.0,6.915489126413377e-05,-2.2833804337096808e-05,0.0,0.0,1.1368683772161603e-12,0.0,343.41521739130434,70,255,0,0
19.05000000000013,35.726139751766304,51.275735274070655,1370.0,6.915489132097719e-05,-2.2833804337096808e-05,0.0,5.684341886080801e-13,-1.1368683772161603e-12,0.0,343.40641304347827,70,255,0,0
19.10000000000013,35.72614320951087,51.275734132380435,1370.0,6.915489132097719e-05,-2.2833804450783646e-05,0.0,0.0,0.0,0.0,343.39760869565214,70,255,0,0
19.15000000000013,35.726146667255435,51.275732990690216,1370.0,6.915489132097719e-05,-2.2833804337096808e-05,0.0,0.0,2.2737367544323206e-12,0.0,343.38880434782607,70,255,0,0
19.20000000000013,35.726150125000004,51.275731849,1370.0,6.915489132097719e-05,-2.283380422340997e-05,0.0,-5.684341886080801e-13,0.0,0.0,343.38,70,255,0,0
19.25000000000013,35.726153582744566,51.27573070730978,1370.0,6.915489126413377e-05,-2.2833804337096808e-05,0.0,0.0,-1.1368683772161603e-12,0.0,343.37119565217387,70,255,0,0
19.300000000000132,35.726157040489134,51.275729565619564,1370.0,6.915489132097719e-05,-2.2833804337096808e-05,0.0,5.684341886080801e-13,0.0,0.0,343.3623913043478,70,255,0,0
19.350000000000133,35.726160498233696,51.27572842392935,1370.0,6.915489132097719e-05,-2.2833804337096808e-05,0.0,-5.684341886080801e-13,-1.1368683772161603e-12,0.0,343.3535869565217,70,255,0,0
19.400000000000134,35.726163955978265,51.27572728223913,1370.0,6.915489126413377e-05,-2.2833804450783646e-05,0.0,0.0,0.0,0.0,343.34478260869565,70,255,0,0
19.450000000000134,35.72616741372283,51.27572614054891,1370.0,6.915489132097719e-05,-2.2833804337096808e-05,0.0,5.684341886080801e-13,1.1368683772161603e-12,0.0,343.3359782608695,70,255,0,0
19.500000000000135,35.726170871467396,51.2757249988587,1370.0,6.915489132097719e-05,-2.2833804337096808e-05,0.0,0.0,0.0,0.0,343.32717391304345,70,255,0,0
19.550000000000136,35.72617432921196,51.27572385716848,1370.0,6.915489132097719e-05,-2.2833804337096808e-05,0.0,0.0,0.0,0.0,343.3183695652174,70,255,0,0
19.600000000000136,35.72617778695653,51.27572271547826,1370.0,6.915489132097719e-05,-2.2833804337096808e-05,0.0,-5.684341886080801e-13,0.0,0.0,343.3095652173913,70,255,0,0
19.650000000000137,35.72618124470109,51.27572157378805,1370.0,6.915489126413377e-05,-2.2833804337096808e-05,0.0,0.0,0.0,0.0,343.3007608695652,70,255,0,0
19.700000000000138,35.72618470244566,51.27572043209783,1370.0,6.915489132097719e-05,-2.2833804337096808e-05,0.0,5.684341886080801e-13,0.0,0.0,343.2919565217391,70,255,0,0
19.75000000000014,35.72618816019022,51.27571929040761,1370.0,6.915489132097719e-05,-2.2833804337096808e-05,0.0,-5.684341886080801e-13,0.0,0.0,343.28315217391304,70,255,0,0
19.80000000000014,35.72619161793479,51.275718148717395,1370.0,6.915489126413377e-05,-2.2833804337096808e-05,0.0,0.0,-1.1368683772161603e-12,0.0,343.2743478260869,70,255,0,0
19.85000000000014,35.72619507567935,51.275717007027175,1370.0,6.915489132097719e-05,-2.2833804450783646e-05,0.0,5.684341886080801e-13,0.0,0.0,343.26554347826084,70,255,0,0
19.90000000000014,35.72619853342392,51.275715865336956,1370.0,6.915489132097719e-05,-2.2833804337096808e-05,0.0,0.0,1.1368683772161603e-12,0.0,343.25673913043477,70,255,0,0
19.95000000000014,35.72620199116848,51.27571472364674,1370.0,6.915489132097719e-05,-2.2833804337096808e-05,0.0,0.0,0.0,0.0,343.2479347826087,70,255,0,0
20.000000000000142,35.72620544891305,51.27571358195652,1370.0,6.915489132097719e-05,-2.2833804337096808e-05,0.0,-1.1368683772161603e-12,1.1368683772161603e-12,0.0,343.23913043478257,70,255,0,0
20.050000000000143,35.72620890665761,51.275712440266304,1370.0,6.915489120729035e-05,-2.283380422340997e-05,0.0,0.0,0.0,0.0,343.2303260869565,70,255,0,0
20.100000000000144,35.72621236440217,51.27571129857609,1370.0,6.915489132097719e-05,-2.2833804337096808e-05,0.0,1.1368683772161603e-12,-2.2737367544323206e-12,0.0,343.2215217391304,70,255,0,0
20.150000000000144,35.72621582214674,51.27571015688587,1370.0,6.915489132097719e-05,-2.2833804450783646e-05,0.0,-5.684341886080801e-13,0.0,0.0,343.2127173913043,70,255,0,0
20.200000000000145,35.7262192798913,51.27570901519565,1370.0,6.915489126413377e-05,-2.2833804337096808e-05,0.0,0.0,1.1368683772161603e-12,0.0,343.2039130434782,70,255,0,0
20.250000000000146,35.72622273763587,51.27570787350544,1370.0,6.915489132097719e-05,-2.2833804337096808e-05,0.0,5.684341886080801e-13,-1.1368683772161603e-12,0.0,343.19510869565215,70,255,0,0
20.300000000000146,35.726226195380434,51.27570673181522,1370.0,6.915489132097719e-05,-2.2833804450783646e-05,0.0,-5.684341886080801e-13,0.0,0.0,343.1863043478261,70,255,0,0
20.350000000000147,35.726229653125,51.275705590125,1370.0,6.915489126413377e-05,-2.2833804337096808e-05,0.0,0.0,2.2737367544323206e-12,0.0,343.17749999999995,70,255,0,0
20.400000000000148,35.726233110869565,51.27570444843478,1370.0,6.915489132097719e-05,-2.283380422340997e-05,0.0,5.684341886080801e-13,0.0,0.0,343.1686956521739,70,255,0,0
20.45000000000015,35.726236568614134,51.27570330674457,1370.0,6.915489132097719e-05,-2.2833804337096808e-05,0.0,0.0,-2.2737367544323206e-12,0.0,343.1598913043478,70,255,0,0
20.50000000000015,35.726240026358695,51.27570216505435,1370.0,6.915489132097719e-05,-2.2833804450783646e-05,0.0,0.0,0.0,0.0,343.15108695652174,70,255,0,0
20.55000000000015,35.726243484103264,51.27570102336413,1370.0,6.915489132097719e-05,-2.2833804337096808e-05,0.0,-5.684341886080801e-13,1.1368683772161603e-12,0.0,343.1422826086956,70,255,0,0
20.60000000000015,35.726246941847826,51.275699881673916,1370.0,6.915489126413377e-05,-2.2833804337096808e-05,0.0,0.0,-1.1368683772161603e-12,0.0,343.13347826086954,70,255,0,0
20.65000000000015,35.726250399592395,51.275698739983696,1370.0,6.915489132097719e-05,-2.2833804450783646e-05,0.0,5.684341886080801e-13,0.0,0.0,343.12467391304347,70,255,0,0
20.700000000000152,35.72625385733696,51.275697598293476,1370.0,6.915489132097719e-05,-2.2833804337096808e-05,0.0,-5.684341886080801e-13,2.2737367544323206e-12,0.0,343.11586956521734,70,255,0,0
20.750000000000153,35.726257315081526,51.275696456603264,1370.0,6.915489126413377e-05,-2.283380422340997e-05,0.0,0.0,0.0,0.0,343.10706521739127,70,255,0,0
20.800000000000153,35.72626077282609,51.275695314913044,1370.0,6.915489132097719e-05,-2.2833804337096808e-05,0.0,5.684341886080801e-13,-1.1368683772161603e-12,0.0,343.0982608695652,70,255,0,0
20.850000000000154,35.726264230570656,51.275694173222824,1370.0,6.915489132097719e-05,-2.2833804337096808e-05,0.0,0.0,0.0,0.0,343.0894565217391,70,255,0,0
20.900000000000155,35.72626768831522,51.27569303153261,1370.0,6.915489132097719e-05,-2.2833804337096808e-05,0.0,0.0,-1.1368683772161603e-12,0.0,343.080652173913,70,255,0,0
20.950000000000156,35.72627114605979,51.27569188984239,1370.0,6.915489132097719e-05,-2.2833804450783646e-05,0.0,-5.684341886080801e-13,0.0,0.0,343.0718478260869,70,255,0,0
21.000000000000156,35.72627460380435,51.27569074815217,1370.0,6.915489126413377e-05,-2.2833804337096808e-05,0.0,0.0,1.1368683772161603e-12,0.0,343.06304347826085,70,255,0,0
21.050000000000157,35.72627806154892,51.27568960646196,1370.0,6.915489132097719e-05,-2.2833804337096808e-05,0.0,5.684341886080801e-13,0.0,0.0,343.0542391304348,70,255,0,0
21.100000000000158,35.72628151929348,51.27568846477174,1370.0,6.915489132097719e-05,-2.2833804337096808e-05,0.0,-5.684341886080801e-13,0.0,0.0,343.04543478260865,70,255,0,0
21.15000000000016,35.72628497703805,51.27568732308152,1370.0,6.915489126413377e-05,-2.2833804337096808e-05,0.0,0.0,0.0,0.0,343.0366304347826,70,255,0,0
21.20000000000016,35.72628843478261,51.27568618139131,1370.0,6.915489132097719e-05,-2.2833804337096808e-05,0.0,5.684341886080801e-13,0.0,0.0,343.0278260869565,70,255,0,0
21.25000000000016,35.72629189252718,51.27568503970109,1370.0,6.915489132097719e-05,-2.2833804337096808e-05,0.0,0.0,0.0,0.0,343.0190217391304,70,255,0,0
21.30000000000016,35.72629535027174,51.27568389801087,1370.0,6.915489132097719e-05,-2.2833804337096808e-05,0.0,0.0,0.0,0.0,343.0102173913043,70,255,0,0
21.35000000000016,35.72629880801631,51.275682756320656,1370.0,6.915489132097719e-05,-2.2833804337096808e-05,0.0,-5.684341886080801e-13,-1.1368683772161603e-12,0.0,343.00141304347824,70,255,0,0
21.400000000000162,35.72630226576087,51.275681614630436,1370.0,6.915489126413377e-05,-2.2833804450783646e-05,0.0,0.0,0.0,0.0,342.99260869565217,70,255,0,0
21.450000000000163,35.72630572350544,51.275680472940216,1370.0,6.915489132097719e-05,-2.2833804337096808e-05,0.0,0.0,1.1368683772161603e-12,0.0,342.98380434782604,70,255,0,0
21.500000000000163,35.72630918125,51.275679331250004,1370.0,6.915489126413377e-05,-2.2833804337096808e-05,0.0,-5.684341886080801e-13,0.0,0.0,342.97499999999997,70,255,0,0
21.550000000000164,35.726312638994564,51.275678189559784,1370.0,6.915489126413377e-05,-2.2833804337096808e-05,0.0,5.684341886080801e-13,1.1368683772161603e-12,0.0,342.9661956521739,70,255,0,0
21.600000000000165,35.72631609673913,51.275677047869564,1370.0,6.915489132097719e-05,-2.283380422340997e-05,0.0,5.684341886080801e-13,0.0,0.0,342.9573913043478,70,255,0,0
21.650000000000166,35.726319554483695,51.27567590617935,1370.0,6.915489132097719e-05,-2.2833804337096808e-05,0.0,-5.684341886080801e-13,-2.2737367544323206e-12,0.0,342.9485869565217,70,255,0,0
21.700000000000166,35.726323012228264,51.27567476448913,1370.0,6.915489126413377e-05,-2.2833804450783646e-05,0.0,0.0,0.0,0.0,342.9397826086956,70,255,0,0
21.750000000000167,35.726326469972825,51.27567362279891,1370.0,6.915489132097719e-05,-2.2833804337096808e-05,0.0,5.684341886080801e-13,1.1368683772161603e-12,0.0,342.93097826086955,70,255,0,0
21.800000000000168,35.726329927717394,51.2756724811087,1370.0,6.915489132097719e-05,-2.2833804337096808e-05,0.0,0.0,-1.1368683772161603e-12,0.0,342.9221739130434,70,255,0,0
21.85000000000017,35.726333385461956,51.27567133941848,1370.0,6.915489132097719e-05,-2.2833804450783646e-05,0.0,0.0,0.0,0.0,342.91336956521735,70,255,0,0
21.90000000000017,35.726336843206525,51.27567019772826,1370.0,6.915489132097719e-05,-2.2833804337096808e-05,0.0,-5.684341886080801e-13,2.2737367544323206e-12,0.0,342.9045652173913,70,255,0,0
21.95000000000017,35.72634030095109,51.27566905603805,1370.0,6.915489126413377e-05,-2.283380422340997e-05,0.0,0.0,0.0,0.0,342.8957608695652,70,255,0,0
22.00000000000017,35.726343758695656,51.27566791434783,1370.0,6.915489132097719e-05,-2.2833804337096808e-05,0.0,5.684341886080801e-13,-1.1368683772161603e-12,0.0,342.8869565217391,70,255,0,0
22.05000000000017,35.72634721644022,51.27566677265761,1370.0,6.915489132097719e-05,-2.2833804337096808e-05,0.0,-5.684341886080801e-13,0.0,0.0,342.878152173913,70,255,0,0
22.100000000000172,35.726350674184786,51.275665630967396,1370.0,6.915489126413377e-05,-2.2833804337096808e-05,0.0,0.0,-1.1368683772161603e-12,0.0,342.86934782608694,70,255,0,0
22.150000000000173,35.72635413192935,51.275664489277176,1370.0,6.915489132097719e-05,-2.2833804450783646e-05,0.0,5.684341886080801e-13,-1.1368683772161603e-12,0.0,342.86054347826087,70,255,0,0
22.200000000000173,35.72635758967392,51.275663347586956,1370.0,6.915489132097719e-05,-2.2833804450783646e-05,0.0,0.0,1.1368683772161603e-12,0.0,342.85173913043474,70,255,0,0
22.250000000000174,35.72636104741848,51.27566220589674,1370.0,6.915489132097719e-05,-2.2833804337096808e-05,0.0,0.0,2.2737367544323206e-12,0.0,342.84293478260867,70,255,0,0
22.300000000000175,35.72636450516305,51.275661064206524,1370.0,6.915489132097719e-05,-2.283380422340997e-05,0.0,-5.684341886080801e-13,0.0,0.0,342.8341304347826,70,255,0,0
22.350000000000176,35.72636796290761,51.275659922516304,1370.0,6.915489126413377e-05,-2.2833804337096808e-05,0.0,0.0,-1.1368683772161603e-12,0.0,342.82532608695647,70,255,0,0
22.400000000000176,35.72637142065218,51.275658780826085,1370.0,6.915489132097719e-05,-2.2833804337096808e-05,0.0,5.684341886080801e-13,0.0,0.0,342.8165217391304,70,255,0,0
22.450000000000177,35.72637487839674,51.27565763913587,1370.0,6.915489132097719e-05,-2.2833804337096808e-05,0.0,-5.684341886080801e-13,-1.1368683772161603e-12,0.0,342.8077173913043,70,255,0,0
22.500000000000178,35.72637833614131,51.27565649744565,1370.0,6.915489126413377e-05,-2.2833804450783646e-05,0.0,0.0,0.0,0.0,342.79891304347825,70,255,0,0
22.55000000000018,35.72638179388587,51.27565535575543,1370.0,6.915489132097719e-05,-2.2833804337096808e-05,0.0,5.684341886080801e-13,1.1368683772161603e-12,0.0,342.7901086956521,70,255,0,0
22.60000000000018,35.72638525163044,51.27565421406522,1370.0,6.915489132097719e-05,-2.2833804337096808e-05,0.0,0.0,0.0,0.0,342.78130434782605,70,255,0,0
22.65000000000018,35.726388709375,51.275653072375,1370.0,6.915489132097719e-05,-2.2833804337096808e-05,0.0,0.0,0.0,0.0,342.7725,70,255,0,0
22.70000000000018,35.72639216711957,51.27565193068478,1370.0,6.915489132097719e-05,-2.2833804337096808e-05,0.0,-5.684341886080801e-13,0.0,0.0,342.7636956521739,70,255,0,0
22.75000000000018,35.72639562486413,51.27565078899457,1370.0,6.915489126413377e-05,-2.2833804337096808e-05,0.0,0.0,0.0,0.0,342.7548913043478,70,255,0,0
22.800000000000182,35.7263990826087,51.27564964730435,1370.0,6.915489132097719e-05,-2.2833804337096808e-05,0.0,5.684341886080801e-13,0.0,0.0,342.7460869565217,70,255,0,0
22.850000000000183,35.72640254035326,51.27564850561413,1370.0,6.915489132097719e-05,-2.2833804337096808e-05,0.0,-5.684341886080801e-13,0.0,0.0,342.73728260869564,70,255,0,0
22.900000000000183,35.72640599809783,51.275647363923916,1370.0,6.915489126413377e-05,-2.2833804337096808e-05,0.0,-5.684341886080801e-13,-1.1368683772161603e-12,0.0,342.7284782608695,70,255,0,0
22.950000000000184,35.72640945584239,51.275646222233696,1370.0,6.915489126413377e-05,-2.2833804450783646e-05,0.0,5.684341886080801e-13,0.0,0.0,342.71967391304344,70,255,0,0
23.000000000000185,35.726412913586955,51.27564508054348,1370.0,6.915489132097719e-05,-2.2833804337096808e-05,0.0,0.0,1.1368683772161603e-12,0.0,342.71086956521737,70,255,0,0
23.050000000000185,35.726416371331524,51.275643938853264,1370.0,6.915489126413377e-05,-2.2833804337096808e-05,0.0,0.0,0.0,0.0,342.7020652173913,70,255,0,0
23.100000000000186,35.726419829076086,51.275642797163044,1370.0,6.915489132097719e-05,-2.2833804337096808e-05,0.0,5.684341886080801e-13,1.1368683772161603e-12,0.0,342.69326086956517,70,255,0,0
23.150000000000187,35.726423286820655,51.275641655472825,1370.0,6.915489132097719e-05,-2.283380422340997e-05,0.0,0.0,0.0,0.0,342.6844565217391,70,255,0,0
23.200000000000188,35.72642674456522,51.27564051378261,1370.0,6.915489132097719e-05,-2.2833804337096808e-05,0.0,0.0,-2.2737367544323206e-12,0.0,342.675652173913,70,255,0,0
23.25000000000019,35.726430202309785,51.27563937209239,1370.0,6.915489132097719e-05,-2.2833804450783646e-05,0.0,-5.684341886080801e-13,0.0,0.0,342.66684782608695,70,255,0,0
23.30000000000019,35.72643366005435,51.27563823040217,1370.0,6.915489126413377e-05,-2.2833804337096808e-05,0.0,0.0,1.1368683772161603e-12,0.0,342.6580434782608,70,255,0,0
23.35000000000019,35.726437117798916,51.27563708871196,1370.0,6.915489132097719e-05,-2.2833804337096808e-05,0.0,5.684341886080801e-13,-1.1368683772161603e-12,0.0,342.64923913043475,70,255,0,0
23.40000000000019,35.72644057554348,51.27563594702174,1370.0,6.915489132097719e-05,-2.2833804450783646e-05,0.0,-5.684341886080801e-13,0.0,0.0,342.6404347826087,70,255,0,0
23.45000000000019,35.72644403328805,51.27563480533152,1370.0,6.915489126413377e-05,-2.2833804337096808e-05,0.0,0.0,2.2737367544323206e-12,0.0,342.63163043478255,70,255,0,0
23.500000000000192,35.72644749103261,51.27563366364131,1370.0,6.915489132097719e-05,-2.283380422340997e-05,0.0,5.684341886080801e-13,0.0,0.0,342.6228260869565,70,255,0,0
23.550000000000193,35.72645094877718,51.27563252195109,1370.0,6.915489132097719e-05,-2.2833804337096808e-05,0.0,0.0,-1.1368683772161603e-12,0.0,342.6140217391304,70,255,0,0
23.600000000000193,35.72645440652174,51.27563138026087,1370.0,6.915489132097719e-05,-2.2833804337096808e-05,0.0,0.0,0.0,0.0,342.60521739130434,70,255,0,0
23.650000000000194,35.72645786426631,51.275630238570656,1370.0,6.915489132097719e-05,-2.2833804337096808e-05,0.0,-5.684341886080801e-13,-1.1368683772161603e-12,0.0,342.5964130434782,70,255,0,0
23.700000000000195,35.72646132201087,51.27562909688044,1370.0,6.915489126413377e-05,-2.2833804450783646e-05,0.0,0.0,0.0,0.0,342.58760869565214,70,255,0,0
23.750000000000195,35.72646477975544,51.27562795519022,1370.0,6.915489132097719e-05,-2.2833804337096808e-05,0.0,5.684341886080801e-13,1.1368683772161603e-12,0.0,342.57880434782606,70,255,0,0
23.800000000000196,35.7264682375,51.275626813500004,1370.0,6.915489132097719e-05,-2.2833804337096808e-05,0.0,-5.684341886080801e-13,0.0,0.0,342.57,70,255,0,0
23.850000000000197,35.72647169524457,51.275625671809784,1370.0,6.915489126413377e-05,-2.2833804337096808e-05,0.0,0.0,0.0,0.0,342.56119565217386,70,255,0,0
23.900000000000198,35.72647515298913,51.275624530119565,1370.0,6.915489132097719e-05,-2.2833804337096808e-05,0.0,5.684341886080801e-13,0.0,0.0,342.5523913043478,70,255,0,0
23.9500000000002,35.7264786107337,51.27562338842935,1370.0,6.915489132097719e-05,-2.2833804337096808e-05,0.0,0.0,0.0,0.0,342.5435869565217,70,255,0,0
24.0000000000002,35.72648206847826,51.27562224673913,1370.0,6.915489132097719e-05,-2.2833804337096808e-05,0.0,0.0,-1.1368683772161603e-12,0.0,342.5347826086956,70,255,0,0
24.0500000000002,35.72648552622283,51.27562110504891,1370.0,6.915489132097719e-05,-2.2833804450783646e-05,0.0,-5.684341886080801e-13,0.0,0.0,342.5259782608695,70,255,0,0
24.1000000000002,35.72648898396739,51.27561996335869,1370.0,6.915489126413377e-05,-2.2833804337096808e-05,0.0,0.0,1.1368683772161603e-12,0.0,342.51717391304345,70,255,0,0
24.1500000000002,35.72649244171196,51.27561882166848,1370.0,6.915489132097719e-05,-2.2833804337096808e-05,0.0,5.684341886080801e-13,0.0,0.0,342.5083695652174,70,255,0,0
24.200000000000202,35.72649589945652,51.27561767997826,1370.0,6.915489132097719e-05,-2.2833804337096808e-05,0.0,-5.684341886080801e-13,0.0,0.0,342.49956521739125,70,255,0,0
24.250000000000203,35.72649935720109,51.27561653828804,1370.0,6.915489126413377e-05,-2.2833804337096808e-05,0.0,0.0,0.0,0.0,342.4907608695652,70,255,0,0
24.300000000000203,35.726502814945654,51.27561539659783,1370.0,6.915489132097719e-05,-2.2833804337096808e-05,0.0,5.684341886080801e-13,0.0,0.0,342.4819565217391,70,255,0,0
24.350000000000204,35.72650627269022,51.27561425490761,1370.0,6.915489132097719e-05,-2.2833804337096808e-05,0.0,-1.1368683772161603e-12,0.0,0.0,342.47315217391304,70,255,0,0
24.400000000000205,35.726509730434785,51.27561311321739,1370.0,6.915489120729035e-05,-2.2833804337096808e-05,0.0,0.0,0.0,0.0,342.4643478260869,70,255,0,0
24.450000000000205,35.72651318817935,51.27561197152718,1370.0,6.915489132097719e-05,-2.2833804337096808e-05,0.0,1.1368683772161603e-12,-1.1368683772161603e-12,0.0,342.45554347826084,70,255,0,0
24.500000000000206,35.726516645923915,51.27561082983696,1370.0,6.915489132097719e-05,-2.2833804450783646e-05,0.0,0.0,0.0,0.0,342.44673913043476,70,255,0,0
24.550000000000207,35.72652010366848,51.27560968814674,1370.0,6.915489132097719e-05,-2.2833804337096808e-05,0.0,0.0,1.1368683772161603e-12,0.0,342.43793478260864,70,255,0,0
24.600000000000207,35.726523561413046,51.275608546456525,1370.0,6.915489132097719e-05,-2.2833804337096808e-05,0.0,-5.684341886080801e-13,0.0,0.0,342.42913043478256,70,255,0,0
24.650000000000208,35.72652701915761,51.275607404766305,1370.0,6.915489126413377e-05,-2.2833804337096808e-05,0.0,0.0,1.1368683772161603e-12,0.0,342.4203260869565,70,255,0,0
24.70000000000021,35.72653047690218,51.275606263076085,1370.0,6.915489132097719e-05,-2.283380422340997e-05,0.0,5.684341886080801e-13,0.0,0.0,342.4115217391304,70,255,0,0
24.75000000000021,35.72653393464674,51.27560512138587,1370.0,6.915489132097719e-05,-2.2833804337096808e-05,0.0,-5.684341886080801e-13,-2.2737367544323206e-12,0.0,342.4027173913043,70,255,0,0
24.80000000000021,35.72653739239131,51.27560397969565,1370.0,6.915489126413377e-05,-2.2833804450783646e-05,0.0,0.0,0.0,0.0,342.3939130434782,70,255,0,0
24.85000000000021,35.72654085013587,51.27560283800543,1370.0,6.915489132097719e-05,-2.2833804337096808e-05,0.0,5.684341886080801e-13,1.1368683772161603e-12,0.0,342.38510869565215,70,255,0,0
24.90000000000021,35.72654430788044,51.27560169631522,1370.0,6.915489132097719e-05,-2.2833804337096808e-05,0.0,0.0,-1.1368683772161603e-12,0.0,342.3763043478261,70,255,0,0
24.950000000000212,35.726547765625,51.275600554625,1370.0,6.915489132097719e-05,-2.2833804450783646e-05,0.0,0.0,0.0,0.0,342.36749999999995,70,255,0,0
25.000000000000213,35.72655122336957,51.27559941293478,1370.0,6.915489132097719e-05,-2.2833804337096808e-05,0.0,-5.684341886080801e-13,2.2737367544323206e-12,0.0,342.3586956521739,70,255,0,0
25.050000000000214,35.72655468111413,51.27559827124457,1370.0,6.915489126413377e-05,-2.283380422340997e-05,0.0,0.0,0.0,0.0,342.3498913043478,70,255,0,0
25.100000000000215,35.7265581388587,51.27559712955435,1370.0,6.915489132097719e-05,-2.2833804337096808e-05,0.0,5.684341886080801e-13,-1.1368683772161603e-12,0.0,342.3410869565217,70,255,0,0
25.150000000000215,35.72656159660326,51.27559598786413,1370.0,6.915489132097719e-05,-2.2833804337096808e-05,0.0,-5.684341886080801e-13,0.0,0.0,342.3322826086956,70,255,0,0
25.200000000000216,35.72656505434783,51.27559484617392,1370.0,6.915489126413377e-05,-2.2833804337096808e-05,0.0,0.0,-1.1368683772161603e-12,0.0,342.32347826086954,70,255,0,0
25.250000000000217,35.72656851209239,51.2755937044837,1370.0,6.915489132097719e-05,-2.2833804450783646e-05,0.0,5.684341886080801e-13,0.0,0.0,342.31467391304346,70,255,0,0
25.300000000000217,35.72657196983696,51.27559256279348,1370.0,6.915489132097719e-05,-2.2833804337096808e-05,0.0,0.0,1.1368683772161603e-12,0.0,342.30586956521734,70,255,0,0
25.350000000000218,35.72657542758152,51.275591421103265,1370.0,6.915489132097719e-05,-2.2833804337096808e-05,0.0,0.0,0.0,0.0,342.29706521739126,70,255,0,0
25.40000000000022,35.72657888532609,51.275590279413045,1370.0,6.915489132097719e-05,-2.2833804337096808e-05,0.0,-5.684341886080801e-13,0.0,0.0,342.2882608695652,70,255,0,0
25.45000000000022,35.72658234307065,51.275589137722825,1370.0,6.915489126413377e-05,-2.2833804337096808e-05,0.0,0.0,0.0,0.0,342.2794565217391,70,255,0,0
25.50000000000022,35.72658580081522,51.27558799603261,1370.0,6.915489132097719e-05,-2.2833804337096808e-05,0.0,5.684341886080801e-13,0.0,0.0,342.270652173913,70,255,0,0
25.55000000000022,35.726589258559784,51.27558685434239,1370.0,6.915489132097719e-05,-2.2833804337096808e-05,0.0,-5.684341886080801e-13,0.0,0.0,342.2618478260869,70,255,0,0
25.60000000000022,35.72659271630435,51.27558571265217,1370.0,6.915489126413377e-05,-2.2833804337096808e-05,0.0,0.0,0.0,0.0,342.25304347826085,70,255,0,0
25.650000000000222,35.726596174048915,51.27558457096196,1370.0,6.915489132097719e-05,-2.2833804337096808e-05,0.0,5.684341886080801e-13,-1.1368683772161603e-12,0.0,342.2442391304347,70,255,0,0
25.700000000000223,35.72659963179348,51.27558342927174,1370.0,6.915489132097719e-05,-2.2833804450783646e-05,0.0,0.0,0.0,0.0,342.23543478260865,70,255,0,0
25.750000000000224,35.726603089538045,51.27558228758152,1370.0,6.915489132097719e-05,-2.2833804337096808e-05,0.0,0.0,1.1368683772161603e-12,0.0,342.2266304347826,70,255,0,0
25.800000000000225,35.726606547282614,51.27558114589131,1370.0,6.915489132097719e-05,-2.2833804337096808e-05,0.0,-1.1368683772161603e-12,0.0,0.0,342.2178260869565,70,255,0,0
25.850000000000225,35.726610005027176,51.27558000420109,1370.0,6.915489120729035e-05,-2.2833804337096808e-05,0.0,0.0,1.1368683772161603e-12,0.0,342.2090217391304,70,255,0,0
25.900000000000226,35.72661346277174,51.27557886251087,1370.0,6.915489132097719e-05,-2.283380422340997e-05,0.0,1.1368683772161603e-12,0.0,0.0,342.2002173913043,70,255,0,0
25.950000000000227,35.72661692051631,51.27557772082066,1370.0,6.915489132097719e-05,-2.2833804337096808e-05,0.0,-5.684341886080801e-13,-2.2737367544323206e-12,0.0,342.19141304347824,70,255,0,0
26.000000000000227,35.72662037826087,51.27557657913044,1370.0,6.915489126413377e-05,-2.2833804450783646e-05,0.0,0.0,-1.1368683772161603e-12,0.0,342.18260869565216,70,255,0,0
26.050000000000228,35.72662383600544,51.27557543744022,1370.0,6.915489132097719e-05,-2.2833804450783646e-05,0.0,5.684341886080801e-13,1.1368683772161603e-12,0.0,342.17380434782604,70,255,0,0
26.10000000000023,35.72662729375,51.27557429575,1370.0,6.915489132097719e-05,-2.2833804337096808e-05,0.0,-5.684341886080801e-13,1.1368683772161603e-12,0.0,342.16499999999996,70,255,0,0
26.15000000000023,35.72663075149457,51.275573154059785,1370.0,6.915489126413377e-05,-2.2833804337096808e-05,0.0,0.0,0.0,0.0,342.1561956521739,70,255,0,0
26.20000000000023,35.72663420923913,51.275572012369565,1370.0,6.915489132097719e-05,-2.2833804337096808e-05,0.0,5.684341886080801e-13,1.1368683772161603e-12,0.0,342.14739130434776,70,255,0,0
26.25000000000023,35.7266376669837,51.275570870679346,1370.0,6.915489132097719e-05,-2.283380422340997e-05,0.0,0.0,0.0,0.0,342.1385869565217,70,255,0,0
26.30000000000023,35.72664112472826,51.27556972898913,1370.0,6.915489132097719e-05,-2.2833804337096808e-05,0.0,0.0,-2.2737367544323206e-12,0.0,342.1297826086956,70,255,0,0
26.350000000000232,35.72664458247283,51.27556858729891,1370.0,6.915489132097719e-05,-2.2833804450783646e-05,0.0,-5.684341886080801e-13,0.0,0.0,342.12097826086955,70,255,0,0
26.400000000000233,35.72664804021739,51.275567445608694,1370.0,6.915489126413377e-05,-2.2833804337096808e-05,0.0,0.0,1.1368683772161603e-12,0.0,342.1121739130434,70,255,0,0
26.450000000000234,35.72665149796196,51.27556630391848,1370.0,6.915489132097719e-05,-2.2833804337096808e-05,0.0,5.684341886080801e-13,-1.1368683772161603e-12,0.0,342.10336956521735,70,255,0,0
26.500000000000234,35.72665495570652,51.27556516222826,1370.0,6.915489132097719e-05,-2.2833804450783646e-05,0.0,-5.684341886080801e-13,0.0,0.0,342.0945652173913,70,255,0,0
26.550000000000235,35.72665841345109,51.27556402053804,1370.0,6.915489126413377e-05,-2.2833804337096808e-05,0.0,0.0,2.2737367544323206e-12,0.0,342.0857608695652,70,255,0,0
26.600000000000236,35.72666187119565,51.27556287884783,1370.0,6.915489132097719e-05,-2.283380422340997e-05,0.0,5.684341886080801e-13,0.0,0.0,342.0769565217391,70,255,0,0
26.650000000000237,35.72666532894022,51.27556173715761,1370.0,6.915489132097719e-05,-2.2833804337096808e-05,0.0,0.0,-1.1368683772161603e-12,0.0,342.068152173913,70,255,0,0
26.700000000000237,35.72666878668478,51.27556059546739,1370.0,6.915489132097719e-05,-2.2833804337096808e-05,0.0,0.0,0.0,0.0,342.05934782608693,70,255,0,0
26.750000000000238,35.72667224442935,51.27555945377718,1370.0,6.915489132097719e-05,-2.2833804337096808e-05,0.0,-5.684341886080801e-13,-1.1368683772161603e-12,0.0,342.0505434782608,70,255,0,0
26.80000000000024,35.726675702173914,51.27555831208696,1370.0,6.915489126413377e-05,-2.2833804450783646e-05,0.0,0.0,0.0,0.0,342.04173913043473,70,255,0,0
26.85000000000024,35.72667915991848,51.27555717039674,1370.0,6.915489132097719e-05,-2.2833804337096808e-05,0.0,5.684341886080801e-13,1.1368683772161603e-12,0.0,342.03293478260866,70,255,0,0
26.90000000000024,35.726682617663045,51.275556028706525,1370.0,6.915489132097719e-05,-2.2833804337096808e-05,0.0,-5.684341886080801e-13,0.0,0.0,342.0241304347826,70,255,0,0
26.95000000000024,35.72668607540761,51.275554887016305,1370.0,6.915489126413377e-05,-2.2833804337096808e-05,0.0,0.0,0.0,0.0,342.01532608695646,70,255,0,0
27.00000000000024,35.726689533152175,51.275553745326086,1370.0,6.915489132097719e-05,-2.2833804337096808e-05,0.0,5.684341886080801e-13,0.0,0.0,342.0065217391304,70,255,0,0
27.050000000000242,35.726692990896744,51.27555260363587,1370.0,6.915489132097719e-05,-2.2833804337096808e-05,0.0,0.0,0.0,0.0,341.9977173913043,70,255,0,0
27.100000000000243,35.726696448641306,51.27555146194565,1370.0,6.915489132097719e-05,-2.2833804337096808e-05,0.0,0.0,0.0,0.0,341.9889130434782,70,255,0,0
27.150000000000244,35.726699906385875,51.275550320255434,1370.0,6.915489132097719e-05,-2.2833804337096808e-05,0.0,-5.684341886080801e-13,0.0,0.0,341.9801086956521,70,255,0,0
27.200000000000244,35.72670336413044,51.27554917856522,1370.0,6.915489126413377e-05,-2.2833804337096808e-05,0.0,0.0,-1.1368683772161603e-12,0.0,341.97130434782605,70,255,0,0
27.250000000000245,35.726706821875005,51.275548036875,1370.0,6.915489132097719e-05,-2.2833804450783646e-05,0.0,0.0,0.0,0.0,341.9625,70,255,0,0
27.300000000000246,35.72671027961957,51.27554689518478,1370.0,6.915489126413377e-05,-2.2833804337096808e-05,0.0,-5.684341886080801e-13,1.1368683772161603e-12,0.0,341.95369565217385,70,255,0,0
27.350000000000247,35.72671373736413,51.27554575349457,1370.0,6.915489126413377e-05,-2.2833804337096808e-05,0.0,5.684341886080801e-13,0.0,0.0,341.9448913043478,70,255,0,0
27.400000000000247,35.7267171951087,51.27554461180435,1370.0,6.915489132097719e-05,-2.2833804337096808e-05,0.0,5.684341886080801e-13,1.1368683772161603e-12,0.0,341.9360869565217,70,255,0,0
27.450000000000248,35.72672065285326,51.27554347011413,1370.0,6.915489132097719e-05,-2.283380422340997e-05,0.0,-5.684341886080801e-13,0.0,0.0,341.92728260869563,70,255,0,0
27.50000000000025,35.72672411059783,51.27554232842392,1370.0,6.915489126413377e-05,-2.2833804337096808e-05,0.0,0.0,-2.2737367544323206e-12,0.0,341.9184782608695,70,255,0,0
27.55000000000025,35.72672756834239,51.2755411867337,1370.0,6.915489132097719e-05,-2.2833804450783646e-05,0.0,5.684341886080801e-13,0.0,0.0,341.90967391304343,70,255,0,0
27.60000000000025,35.72673102608696,51.27554004504348,1370.0,6.915489132097719e-05,-2.2833804337096808e-05,0.0,0.0,1.1368683772161603e-12,0.0,341.90086956521736,70,255,0,0
27.65000000000025,35.72673448383152,51.275538903353265,1370.0,6.915489132097719e-05,-2.2833804337096808e-05,0.0,0.0,-1.1368683772161603e-12,0.0,341.89206521739123,70,255,0,0
27.70000000000025,35.72673794157609,51.275537761663045,1370.0,6.915489132097719e-05,-2.2833804450783646e-05,0.0,-5.684341886080801e-13,0.0,0.0,341.88326086956516,70,255,0,0
27.750000000000252,35.72674139932065,51.275536619972826,1370.0,6.915489126413377e-05,-2.2833804337096808e-05,0.0,0.0,2.2737367544323206e-12,0.0,341.8744565217391,70,255,0,0
27.800000000000253,35.72674485706522,51.27553547828261,1370.0,6.915489132097719e-05,-2.283380422340997e-05,0.0,5.684341886080801e-13,0.0,0.0,341.865652173913,70,255,0,0
27.850000000000254,35.72674831480978,51.27553433659239,1370.0,6.915489132097719e-05,-2.2833804337096808e-05,0.0,-5.684341886080801e-13,-2.2737367544323206e-12,0.0,341.8568478260869,70,255,0,0
27.900000000000254,35.72675177255435,51.275533194902174,1370.0,6.915489126413377e-05,-2.2833804450783646e-05,0.0,0.0,0.0,0.0,341.8480434782608,70,255,0,0
27.950000000000255,35.72675523029891,51.275532053211954,1370.0,6.915489132097719e-05,-2.2833804337096808e-05,0.0,5.684341886080801e-13,1.1368683772161603e-12,0.0,341.83923913043475,70,255,0,0
28.000000000000256,35.72675868804348,51.27553091152174,1370.0,6.915489132097719e-05,-2.2833804337096808e-05,0.0,0.0,-1.1368683772161603e-12,0.0,341.8304347826087,70,255,0,0
28.050000000000257,35.726762145788044,51.27552976983152,1370.0,6.915489132097719e-05,-2.2833804450783646e-05,0.0,0.0,0.0,0.0,341.82163043478255,70,255,0,0
28.100000000000257,35.72676560353261,51.2755286281413,1370.0,6.915489132097719e-05,-2.2833804337096808e-05,0.0,-5.684341886080801e-13,2.2737367544323206e-12,0.0,341.8128260869565,70,255,0,0
28.150000000000258,35.726769061277174,51.27552748645109,1370.0,6.915489126413377e-05,-2.283380422340997e-05,0.0,0.0,0.0,0.0,341.8040217391304,70,255,0,0
28.20000000000026,35.72677251902174,51.27552634476087,1370.0,6.915489132097719e-05,-2.2833804337096808e-05,0.0,5.684341886080801e-13,-1.1368683772161603e-12,0.0,341.7952173913043,70,255,0,0
28.25000000000026,35.726775976766305,51.27552520307065,1370.0,6.915489132097719e-05,-2.2833804337096808e-05,0.0,-5.684341886080801e-13,0.0,0.0,341.7864130434782,70,255,0,0
28.30000000000026,35.726779434510874,51.27552406138044,1370.0,6.915489126413377e-05,-2.2833804337096808e-05,0.0,0.0,-1.1368683772161603e-12,0.0,341.77760869565213,70,255,0,0
28.35000000000026,35.726782892255436,51.27552291969022,1370.0,6.915489132097719e-05,-2.2833804450783646e-05,0.0,5.684341886080801e-13,0.0,0.0,341.76880434782606,70,255,0,0
28.40000000000026,35.726786350000005,51.275521778,1370.0,6.915489132097719e-05,-2.2833804337096808e-05,0.0,0.0,1.1368683772161603e-12,0.0,341.75999999999993,70,255,0,0
28.450000000000262,35.72678980774457,51.275520636309786,1370.0,6.915489132097719e-05,-2.2833804337096808e-05,0.0,0.0,0.0,0.0,341.75119565217386,70,255,0,0
28.500000000000263,35.726793265489135,51.275519494619566,1370.0,6.915489132097719e-05,-2.2833804337096808e-05,0.0,-5.684341886080801e-13,0.0,0.0,341.7423913043478,70,255,0,0
28.550000000000264,35.7267967232337,51.275518352929346,1370.0,6.915489126413377e-05,-2.2833804337096808e-05,0.0,0.0,0.0,0.0,341.7335869565217,70,255,0,0
28.600000000000264,35.726800180978266,51.27551721123913,1370.0,6.915489132097719e-05,-2.2833804337096808e-05,0.0,0.0,0.0,0.0,341.7247826086956,70,255,0,0
28.650000000000265,35.72680363872283,51.275516069548914,1370.0,6.915489126413377e-05,-2.2833804337096808e-05,0.0,-5.684341886080801e-13,0.0,0.0,341.7159782608695,70,255,0,0
28.700000000000266,35.72680709646739,51.275514927858694,1370.0,6.915489126413377e-05,-2.2833804337096808e-05,0.0,5.684341886080801e-13,0.0,0.0,341.70717391304345,70,255,0,0
28.750000000000266,35.72681055421196,51.27551378616848,1370.0,6.915489132097719e-05,-2.2833804337096808e-05,0.0,5.684341886080801e-13,-1.1368683772161603e-12,0.0,341.6983695652173,70,255,0,0
28.800000000000267,35.72681401195652,51.27551264447826,1370.0,6.915489132097719e-05,-2.2833804450783646e-05,0.0,-5.684341886080801e-13,0.0,0.0,341.68956521739125,70,255,0,0
28.850000000000268,35.72681746970109,51.27551150278804,1370.0,6.915489126413377e-05,-2.2833804337096808e-05,0.0,0.0,1.1368683772161603e-12,0.0,341.6807608695652,70,255,0,0
28.90000000000027,35.72682092744565,51.27551036109783,1370.0,6.915489132097719e-05,-2.2833804337096808e-05,0.0,5.684341886080801e-13,0.0,0.0,341.6719565217391,70,255,0,0
28.95000000000027,35.72682438519022,51.27550921940761,1370.0,6.915489132097719e-05,-2.2833804337096808e-05,0.0,0.0,1.1368683772161603e-12,0.0,341.663152173913,70,255,0,0
29.00000000000027,35.72682784293478,51.27550807771739,1370.0,6.915489132097719e-05,-2.283380422340997e-05,0.0,0.0,0.0,0.0,341.6543478260869,70,255,0,0
29.05000000000027,35.72683130067935,51.27550693602718,1370.0,6.915489132097719e-05,-2.2833804337096808e-05,0.0,-5.684341886080801e-13,-2.2737367544323206e-12,0.0,341.64554347826083,70,255,0,0
29.10000000000027,35.72683475842391,51.27550579433696,1370.0,6.915489126413377e-05,-2.2833804450783646e-05,0.0,0.0,0.0,0.0,341.63673913043476,70,255,0,0
29.150000000000272,35.72683821616848,51.27550465264674,1370.0,6.915489132097719e-05,-2.2833804337096808e-05,0.0,5.684341886080801e-13,1.1368683772161603e-12,0.0,341.62793478260863,70,255,0,0
29.200000000000273,35.72684167391304,51.275503510956526,1370.0,6.915489132097719e-05,-2.2833804337096808e-05,0.0,-5.684341886080801e-13,-1.1368683772161603e-12,0.0,341.61913043478256,70,255,0,0
29.250000000000274,35.72684513165761,51.275502369266306,1370.0,6.915489126413377e-05,-2.2833804450783646e-05,0.0,0.0,0.0,0.0,341.6103260869565,70,255,0,0
29.300000000000274,35.726848589402174,51.275501227576086,1370.0,6.915489132097719e-05,-2.2833804337096808e-05,0.0,5.684341886080801e-13,2.2737367544323206e-12,0.0,341.60152173913036,70,255,0,0
29.350000000000275,35.72685204714674,51.275500085885874,1370.0,6.915489132097719e-05,-2.283380422340997e-05,0.0,0.0,0.0,0.0,341.5927173913043,70,255,0,0
29.400000000000276,35.726855504891304,51.275498944195654,1370.0,6.915489132097719e-05,-2.2833804337096808e-05,0.0,0.0,-1.1368683772161603e-12,0.0,341.5839130434782,70,255,0,0
29.450000000000276,35.72685896263587,51.275497802505434,1370.0,6.915489132097719e-05,-2.2833804337096808e-05,0.0,-5.684341886080801e-13,0.0,0.0,341.57510869565215,70,255,0,0
29.500000000000277,35.726862420380435,51.27549666081522,1370.0,6.915489126413377e-05,-2.2833804337096808e-05,0.0,0.0,-1.1368683772161603e-12,0.0,341.566304347826,70,255,0,0
29.550000000000278,35.726865878125004,51.275495519125,1370.0,6.915489132097719e-05,-2.2833804450783646e-05,0.0,5.684341886080801e-13,0.0,0.0,341.55749999999995,70,255,0,0
29.60000000000028,35.726869335869566,51.27549437743478,1370.0,6.915489132097719e-05,-2.2833804337096808e-05,0.0,-5.684341886080801e-13,1.1368683772161603e-12,0.0,341.5486956521739,70,255,0,0
29.65000000000028,35.726872793614135,51.27549323574457,1370.0,6.915489126413377e-05,-2.2833804337096808e-05,0.0,0.0,0.0,0.0,341.5398913043478,70,255,0,0
29.70000000000028,35.726876251358696,51.27549209405435,1370.0,6.915489132097719e-05,-2.2833804337096808e-05,0.0,5.684341886080801e-13,0.0,0.0,341.5310869565217,70,255,0,0
29.75000000000028,35.726879709103265,51.27549095236413,1370.0,6.915489132097719e-05,-2.2833804337096808e-05,0.0,0.0,0.0,0.0,341.5222826086956,70,255,0,0
29.80000000000028,35.72688316684783,51.27548981067391,1370.0,6.915489132097719e-05,-2.2833804337096808e-05,0.0,0.0,0.0,0.0,341.51347826086953,70,255,0,0
29.850000000000282,35.726886624592396,51.2754886689837,1370.0,6.915489132097719e-05,-2.2833804337096808e-05,0.0,-5.684341886080801e-13,-1.1368683772161603e-12,0.0,341.5046739130434,70,255,0,0
29.900000000000283,35.72689008233696,51.27548752729348,1370.0,6.915489126413377e-05,-2.2833804450783646e-05,0.0,0.0,0.0,0.0,341.49586956521733,70,255,0,0
29.950000000000284,35.72689354008153,51.27548638560326,1370.0,6.915489132097719e-05,-2.2833804337096808e-05,0.0,5.684341886080801e-13,1.1368683772161603e-12,0.0,341.48706521739126,70,255,0,0
30.000000000000284,35.72689699782609,51.275485243913046,1370.0,6.915489132097719e-05,-2.2833804337096808e-05,0.0,-5.684341886080801e-13,0.0,0.0,341.4782608695652,70,255,0,0
30.050000000000285,35.72690045557066,51.275484102222826,1370.0,6.915489126413377e-05,-2.2833804337096808e-05,0.0,-5.684341886080801e-13,0.0,0.0,341.46945652173906,70,255,0,0
30.100000000000286,35.72690391331522,51.27548296053261,1370.0,6.915489126413377e-05,-2.2833804337096808e-05,0.0,5.684341886080801e-13,0.0,0.0,341.460652173913,70,255,0,0
30.150000000000286,35.72690737105978,51.275481818842394,1370.0,6.915489132097719e-05,-2.2833804337096808e-05,0.0,0.0,0.0,0.0,341.4518478260869,70,255,0,0
30.200000000000287,35.72691082880435,51.275480677152174,1370.0,6.915489126413377e-05,-2.2833804337096808e-05,0.0,0.0,0.0,0.0,341.44304347826085,70,255,0,0
30.250000000000288,35.72691428654891,51.275479535461955,1370.0,6.915489132097719e-05,-2.2833804337096808e-05,0.0,5.684341886080801e-13,0.0,0.0,341.4342391304347,70,255,0,0
30.30000000000029,35.72691774429348,51.27547839377174,1370.0,6.915489132097719e-05,-2.2833804337096808e-05,0.0,0.0,-1.1368683772161603e-12,0.0,341.42543478260865,70,255,0,0
30.35000000000029,35.72692120203804,51.27547725208152,1370.0,6.915489132097719e-05,-2.2833804450783646e-05,0.0,0.0,0.0,0.0,341.4166304347826,70,255,0,0
30.40000000000029,35.72692465978261,51.2754761103913,1370.0,6.915489132097719e-05,-2.2833804337096808e-05,0.0,-5.684341886080801e-13,1.1368683772161603e-12,0.0,341.40782608695645,70,255,0,0
30.45000000000029,35.72692811752717,51.27547496870109,1370.0,6.915489126413377e-05,-2.2833804337096808e-05,0.0,0.0,0.0,0.0,341.3990217391304,70,255,0,0
30.50000000000029,35.72693157527174,51.27547382701087,1370.0,6.915489132097719e-05,-2.2833804337096808e-05,0.0,5.684341886080801e-13,1.1368683772161603e-12,0.0,341.3902173913043,70,255,0,0
30.550000000000292,35.726935033016304,51.27547268532065,1370.0,6.915489132097719e-05,-2.283380422340997e-05,0.0,-5.684341886080801e-13,0.0,0.0,341.38141304347823,70,255,0,0
30.600000000000293,35.72693849076087,51.27547154363044,1370.0,6.915489126413377e-05,-2.2833804337096808e-05,0.0,0.0,-2.2737367544323206e-12,0.0,341.3726086956521,70,255,0,0
30.650000000000293,35.726941948505434,51.27547040194022,1370.0,6.915489132097719e-05,-2.2833804450783646e-05,0.0,5.684341886080801e-13,0.0,0.0,341.36380434782603,70,255,0,0
30.700000000000294,35.72694540625,51.27546926025,1370.0,6.915489132097719e-05,-2.2833804337096808e-05,0.0,0.0,1.1368683772161603e-12,0.0,341.35499999999996,70,255,0,0
30.750000000000295,35.726948863994565,51.275468118559786,1370.0,6.915489132097719e-05,-2.2833804337096808e-05,0.0,0.0,-1.1368683772161603e-12,0.0,341.3461956521739,70,255,0,0
30.800000000000296,35.726952321739134,51.275466976869566,1370.0,6.915489132097719e-05,-2.2833804450783646e-05,0.0,-5.684341886080801e-13,0.0,0.0,341.33739130434776,70,255,0,0
30.850000000000296,35.726955779483696,51.27546583517935,1370.0,6.915489126413377e-05,-2.2833804337096808e-05,0.0,0.0,2.2737367544323206e-12,0.0,341.3285869565217,70,255,0,0
30.900000000000297,35.726959237228264,51.275464693489134,1370.0,6.915489132097719e-05,-2.283380422340997e-05,0.0,5.684341886080801e-13,0.0,0.0,341.3197826086956,70,255,0,0
30.950000000000298,35.726962694972826,51.275463551798914,1370.0,6.915489132097719e-05,-2.2833804337096808e-05,0.0,-5.684341886080801e-13,-1.1368683772161603e-12,0.0,341.3109782608695,70,255,0,0
31.0000000000003,35.726966152717395,51.275462410108695,1370.0,6.915489126413377e-05,-2.2833804337096808e-05,0.0,0.0,0.0,0.0,341.3021739130434,70,255,0,0
31.0500000000003,35.72696961046196,51.27546126841848,1370.0,6.915489132097719e-05,-2.2833804337096808e-05,0.0,5.684341886080801e-13,-1.1368683772161603e-12,0.0,341.29336956521735,70,255,0,0
31.1000000000003,35.726973068206526,51.27546012672826,1370.0,6.915489132097719e-05,-2.2833804450783646e-05,0.0,0.0,0.0,0.0,341.2845652173913,70,255,0,0
31.1500000000003,35.72697652595109,51.27545898503804,1370.0,6.915489132097719e-05,-2.2833804337096808e-05,0.0,0.0,1.1368683772161603e-12,0.0,341.27576086956515,70,255,0,0
31.2000000000003,35.72697998369566,51.27545784334783,1370.0,6.915489132097719e-05,-2.2833804337096808e-05,0.0,-5.684341886080801e-13,0.0,0.0,341.2669565217391,70,255,0,0
31.250000000000302,35.72698344144022,51.27545670165761,1370.0,6.915489126413377e-05,-2.2833804337096808e-05,0.0,0.0,0.0,0.0,341.258152173913,70,255,0,0
31.300000000000303,35.72698689918479,51.27545555996739,1370.0,6.915489132097719e-05,-2.2833804337096808e-05,0.0,5.684341886080801e-13,0.0,0.0,341.24934782608693,70,255,0,0
31.350000000000303,35.72699035692935,51.27545441827718,1370.0,6.915489132097719e-05,-2.2833804337096808e-05,0.0,-5.684341886080801e-13,0.0,0.0,341.2405434782608,70,255,0,0
31.400000000000304,35.72699381467392,51.27545327658696,1370.0,6.915489126413377e-05,-2.2833804337096808e-05,0.0,0.0,0.0,0.0,341.23173913043473,70,255,0,0
31.450000000000305,35.72699727241848,51.27545213489674,1370.0,6.915489132097719e-05,-2.2833804337096808e-05,0.0,5.684341886080801e-13,0.0,0.0,341.22293478260866,70,255,0,0
31.500000000000306,35.72700073016305,51.275450993206526,1370.0,6.915489132097719e-05,-2.2833804337096808e-05,0.0,-1.1368683772161603e-12,-1.1368683772161603e-12,0.0,341.21413043478253,70,255,0,0
31.550000000000306,35.72700418790761,51.275449851516306,1370.0,6.915489120729035e-05,-2.2833804450783646e-05,0.0,0.0,0.0,0.0,341.20532608695646,70,255,0,0
31.600000000000307,35.72700764565217,51.27544870982609,1370.0,6.915489132097719e-05,-2.2833804337096808e-05,0.0,1.1368683772161603e-12,1.1368683772161603e-12,0.0,341.1965217391304,70,255,0,0
31.650000000000308,35.72701110339674,51.27544756813587,1370.0,6.915489132097719e-05,-2.2833804337096808e-05,0.0,0.0,0.0,0.0,341.1877173913043,70,255,0,0
31.70000000000031,35.7270145611413,51.275446426445654,1370.0,6.915489132097719e-05,-2.2833804337096808e-05,0.0,0.0,0.0,0.0,341.1789130434782,70,255,0,0
31.75000000000031,35.72701801888587,51.275445284755435,1370.0,6.915489132097719e-05,-2.2833804337096808e-05,0.0,-5.684341886080801e-13,0.0,0.0,341.1701086956521,70,255,0,0
31.80000000000031,35.72702147663043,51.275444143065215,1370.0,6.915489126413377e-05,-2.2833804337096808e-05,0.0,0.0,0.0,0.0,341.16130434782605,70,255,0,0
31.85000000000031,35.727024934375,51.275443001375,1370.0,6.915489132097719e-05,-2.2833804337096808e-05,0.0,5.684341886080801e-13,-1.1368683772161603e-12,0.0,341.1525,70,255,0,0
31.90000000000031,35.727028392119564,51.27544185968478,1370.0,6.915489132097719e-05,-2.2833804450783646e-05,0.0,-5.684341886080801e-13,0.0,0.0,341.14369565217385,70,255,0,0
31.950000000000312,35.72703184986413,51.27544071799456,1370.0,6.915489126413377e-05,-2.2833804337096808e-05,0.0,0.0,1.1368683772161603e-12,1.8189894035458306e-11,341.1348913043478,70,255,0,0
32.00000000000031,35.727035307608695,51.27543957630435,1370.0,6.915489132097719e-05,-2.2833804337096808e-05,1.8189894035458565e-12,0.0,0.0,1.818989403545766e-11,341.1260869565217,70,255,0,0
32.05000000000031,35.727038765353264,51.27543843461413,1370.0,6.915489126413377e-05,-2.2833804337096808e-05,1.8189894035458565e-12,0.0,0.0,-1.818989403545572e-11,341.1172826086956,70,255,0,0
32.100000000000314,35.727042223097826,51.27543729292391,1370.0,6.915489132097719e-05,-2.2833804337096808e-05,0.0,5.684341886080801e-13,0.0,-3.637978807091403e-11,341.1084782608695,70,255,0,0
32.15000000000032,35.727045680842394,51.2754361512337,1370.0,6.915489132097719e-05,-2.2833804337096808e-05,-1.8189894035458565e-12,0.0,0.0,5.169878828456276e-24,341.09967391304343,70,255,0,0
32.200000000000315,35.727049138586956,51.27543500954348,1370.0,6.915489132097719e-05,-2.2833804337096808e-05,0.0,0.0,0.0,3.63797880709192e-11,341.09086956521736,70,255,0,0
32.25000000000031,35.727052596331525,51.27543386785326,1370.0,6.915489132097719e-05,-2.2833804337096808e-05,1.8189894035458565e-12,0.0,0.0,5.169878828456276e-24,341.08206521739123,70,255,0,0
32.30000000000032,35.72705605407609,51.27543272616305,1370.0,6.915489132097719e-05,-2.2833804337096808e-05,0.0,0.0,-1.1368683772161603e-12,-3.637978807091403e-11,341.07326086956516,70,255,0,0
32.35000000000032,35.727059511820656,51.27543158447283,1370.0,6.915489132097719e-05,-2.2833804450783646e-05,-1.8189894035458565e-12,0.0,0.0,5.169878828456276e-24,341.0644565217391,70,255,0,0
32.40000000000032,35.72706296956522,51.27543044278261,1370.0,6.915489132097719e-05,-2.2833804337096808e-05,0.0,-5.684341886080801e-13,2.2737367544323206e-12,3.63797880709192e-11,341.055652173913,70,255,0,0
32.450000000000315,35.727066427309786,51.275429301092394,1370.0,6.915489126413377e-05,-2.283380422340997e-05,1.8189894035458565e-12,0.0,-1.1368683772161603e-12,5.169878828456276e-24,341.0468478260869,70,255,0,0
32.50000000000032,35.72706988505435,51.275428159402175,1370.0,6.915489132097719e-05,-2.2833804450783646e-05,0.0,5.684341886080801e-13,-1.1368683772161603e-12,-3.637978807091403e-11,341.0380434782608,70,255,0,0
32.550000000000324,35.72707334279892,51.275427017711955,1370.0,6.915489132097719e-05,-2.2833804337096808e-05,-1.8189894035458565e-12,0.0,1.1368683772161603e-12,5.169878828456276e-24,341.02923913043475,70,255,0,0
32.60000000000032,35.72707680054348,51.27542587602174,1370.0,6.915489132097719e-05,-2.2833804337096808e-05,0.0,0.0,-1.1368683772161603e-12,3.63797880709192e-11,341.0204347826086,70,255,0,0
32.65000000000032,35.72708025828805,51.27542473433152,1370.0,6.915489132097719e-05,-2.2833804450783646e-05,1.8189894035458565e-12,0.0,1.1368683772161603e-12,5.169878828456276e-24,341.01163043478255,70,255,0,0
32.70000000000032,35.72708371603261,51.2754235926413,1370.0,6.915489132097719e-05,-2.283380422340997e-05,0.0,0.0,1.1368683772161603e-12,-3.637978807091403e-11,341.0028260869565,70,255,0,0
32.75000000000033,35.72708717377718,51.27542245095109,1370.0,6.915489132097719e-05,-2.2833804337096808e-05,-1.8189894035458565e-12,0.0,-2.2737367544323206e-12,5.169878828456276e-24,340.9940217391304,70,255,0,0
32.800000000000324,35.72709063152174,51.27542130926087,1370.0,6.915489132097719e-05,-2.2833804450783646e-05,0.0,-5.684341886080801e-13,0.0,3.63797880709192e-11,340.9852173913043,70,255,0,0
32.85000000000032,35.72709408926631,51.27542016757065,1370.0,6.915489126413377e-05,-2.2833804337096808e-05,1.8189894035458565e-12,0.0,1.1368683772161603e-12,5.169878828456276e-24,340.9764130434782,70,255,0,0
32.900000000000325,35.72709754701087,51.27541902588044,1370.0,6.915489132097719e-05,-2.2833804337096808e-05,0.0,5.684341886080801e-13,0.0,-3.637978807091403e-11,340.96760869565213,70,255,0,0
32.95000000000033,35.72710100475544,51.27541788419022,1370.0,6.915489132097719e-05,-2.2833804337096808e-05,-1.8189894035458565e-12,-5.684341886080801e-13,0.0,5.169878828456276e-24,340.958804347826,70,255,0,0
33.00000000000033,35.7271044625,51.2754167425,1370.0,6.915489126413377e-05,-2.2833804337096808e-05,0.0,0.0,0.0,3.63797880709192e-11,340.94999999999993,70,255,0,0
33.050000000000324,35.72710792024456,51.27541560080979,1370.0,6.915489132097719e-05,-2.2833804337096808e-05,1.8189894035458565e-12,0.0,0.0,5.169878828456276e-24,340.94119565217386,70,255,0,0
33.10000000000033,35.72711137798913,51.27541445911957,1370.0,6.915489126413377e-05,-2.2833804337096808e-05,0.0,0.0,0.0,-3.637978807091403e-11,340.9323913043478,70,255,0,0
33.15000000000033,35.727114835733694,51.27541331742935,1370.0,6.915489132097719e-05,-2.2833804337096808e-05,-1.8189894035458565e-12,0.0,0.0,5.169878828456276e-24,340.92358695652166,70,255,0,0
33.20000000000033,35.72711829347826,51.275412175739135,1370.0,6.915489126413377e-05,-2.2833804337096808e-05,0.0,-5.684341886080801e-13,0.0,3.63797880709192e-11,340.9147826086956,70,255,0,0
33.25000000000033,35.727121751222825,51.275411034048915,1370.0,6.915489126413377e-05,-2.2833804337096808e-05,1.8189894035458565e-12,5.684341886080801e-13,0.0,5.169878828456276e-24,340.9059782608695,70,255,0,0
33.30000000000033,35.727125208967394,51.275409892358695,1370.0,6.915489132097719e-05,-2.2833804337096808e-05,0.0,5.684341886080801e-13,0.0,-3.637978807091403e-11,340.89717391304345,70,255,0,0
33.350000000000335,35.727128666711955,51.27540875066848,1370.0,6.915489132097719e-05,-2.2833804337096808e-05,-1.8189894035458565e-12,0.0,0.0,5.169878828456276e-24,340.8883695652173,70,255,0,0
33.40000000000033,35.727132124456524,51.27540760897826,1370.0,6.915489132097719e-05,-2.2833804337096808e-05,0.0,0.0,-1.1368683772161603e-12,3.63797880709192e-11,340.87956521739125,70,255,0,0
33.45000000000033,35.727135582201086,51.27540646728804,1370.0,6.915489132097719e-05,-2.2833804450783646e-05,1.8189894035458565e-12,-5.684341886080801e-13,0.0,5.169878828456276e-24,340.8707608695652,70,255,0,0
33.500000000000334,35.727139039945655,51.27540532559782,1370.0,6.915489126413377e-05,-2.2833804337096808e-05,0.0,0.0,1.1368683772161603e-12,-3.637978807091403e-11,340.8619565217391,70,255,0,0
33.55000000000034,35.72714249769022,51.27540418390761,1370.0,6.915489132097719e-05,-2.2833804337096808e-05,-1.8189894035458565e-12,0.0,-1.1368683772161603e-12,5.169878828456276e-24,340.853152173913,70,255,0,0
33.600000000000335,35.727145955434786,51.27540304221739,1370.0,6.915489126413377e-05,-2.2833804450783646e-05,0.0,-5.684341886080801e-13,1.1368683772161603e-12,3.63797880709192e-11,340.8443478260869,70,255,0,0
33.65000000000033,35.72714941317935,51.27540190052717,1370.0,6.915489126413377e-05,-2.283380422340997e-05,1.8189894035458565e-12,5.684341886080801e-13,1.1368683772161603e-12,5.169878828456276e-24,340.83554347826083,70,255,0,0
33.70000000000034,35.727152870923916,51.27540075883696,1370.0,6.915489132097719e-05,-2.2833804337096808e-05,0.0,5.684341886080801e-13,-2.2737367544323206e-12,-3.637978807091403e-11,340.8267391304347,70,255,0,0
33.75000000000034,35.72715632866848,51.27539961714674,1370.0,6.915489132097719e-05,-2.2833804450783646e-05,-1.8189894035458565e-12,0.0,0.0,5.169878828456276e-24,340.81793478260863,70,255,0,0
33.80000000000034,35.72715978641305,51.27539847545652,1370.0,6.915489132097719e-05,-2.2833804337096808e-05,0.0,0.0,1.1368683772161603e-12,3.63797880709192e-11,340.80913043478256,70,255,0,0
33.850000000000335,35.72716324415761,51.27539733376631,1370.0,6.915489132097719e-05,-2.2833804337096808e-05,1.8189894035458565e-12,-5.684341886080801e-13,0.0,5.169878828456276e-24,340.8003260869565,70,255,0,0
33.90000000000034,35.72716670190218,51.27539619207609,1370.0,6.915489126413377e-05,-2.2833804337096808e-05,0.0,0.0,0.0,-3.637978807091403e-11,340.79152173913036,70,255,0,0
33.950000000000344,35.72717015964674,51.27539505038587,1370.0,6.915489132097719e-05,-2.2833804337096808e-05,-1.8189894035458565e-12,0.0,0.0,5.169878828456276e-24,340.7827173913043,70,255,0,0
34.00000000000034,35.72717361739131,51.275393908695655,1370.0,6.915489126413377e-05,-2.2833804337096808e-05,0.0,-5.684341886080801e-13,0.0,3.63797880709192e-11,340.7739130434782,70,255,0,0
34.05000000000034,35.72717707513587,51.275392767005435,1370.0,6.915489126413377e-05,-2.2833804337096808e-05,1.8189894035458565e-12,5.684341886080801e-13,0.0,5.169878828456276e-24,340.76510869565215,70,255,0,0
34.10000000000034,35.72718053288044,51.275391625315216,1370.0,6.915489132097719e-05,-2.2833804337096808e-05,0.0,5.684341886080801e-13,0.0,-3.637978807091403e-11,340.756304347826,70,255,0,0
34.15000000000035,35.727183990625,51.275390483625,1370.0,6.915489132097719e-05,-2.2833804337096808e-05,-1.8189894035458565e-12,0.0,0.0,5.169878828456276e-24,340.74749999999995,70,255,0,0
34.200000000000344,35.72718744836957,51.27538934193478,1370.0,6.915489132097719e-05,-2.2833804337096808e-05,0.0,0.0,0.0,3.63797880709192e-11,340.7386956521739,70,255,0,0
34.25000000000034,35.72719090611413,51.275388200244564,1370.0,6.915489132097719e-05,-2.2833804337096808e-05,1.8189894035458565e-12,-5.684341886080801e-13,0.0,5.169878828456276e-24,340.72989130434775,70,255,0,0
34.300000000000345,35.7271943638587,51.27538705855435,1370.0,6.915489126413377e-05,-2.2833804337096808e-05,0.0,0.0,-1.1368683772161603e-12,-3.637978807091403e-11,340.7210869565217,70,255,0,0
34.35000000000035,35.72719782160326,51.27538591686413,1370.0,6.915489132097719e-05,-2.2833804450783646e-05,-1.8189894035458565e-12,0.0,0.0,5.169878828456276e-24,340.7122826086956,70,255,0,0
34.40000000000035,35.72720127934783,51.27538477517391,1370.0,6.915489126413377e-05,-2.2833804337096808e-05,0.0,-1.1368683772161603e-12,2.2737367544323206e-12,3.63797880709192e-11,340.70347826086953,70,255,0,0
34.450000000000344,35.72720473709239,51.2753836334837,1370.0,6.915489120729035e-05,-2.283380422340997e-05,1.8189894035458565e-12,5.684341886080801e-13,-1.1368683772161603e-12,5.169878828456276e-24,340.6946739130434,70,255,0,0
34.50000000000035,35.727208194836955,51.27538249179348,1370.0,6.915489132097719e-05,-2.2833804450783646e-05,0.0,1.1368683772161603e-12,-1.1368683772161603e-12,-3.637978807091403e-11,340.68586956521733,70,255,0,0
34.55000000000035,35.72721165258152,51.27538135010326,1370.0,6.915489132097719e-05,-2.2833804337096808e-05,-1.8189894035458565e-12,0.0,2.2737367544323206e-12,5.169878828456276e-24,340.67706521739126,70,255,0,0
34.60000000000035,35.727215110326085,51.27538020841305,1370.0,6.915489132097719e-05,-2.283380422340997e-05,0.0,-5.684341886080801e-13,-1.1368683772161603e-12,3.63797880709192e-11,340.66826086956513,70,255,0,0
34.65000000000035,35.727218568070654,51.27537906672283,1370.0,6.915489126413377e-05,-2.2833804450783646e-05,1.8189894035458565e-12,-5.684341886080801e-13,-1.1368683772161603e-12,5.169878828456276e-24,340.65945652173906,70,255,0,0
34.70000000000035,35.727222025815216,51.27537792503261,1370.0,6.915489126413377e-05,-2.2833804337096808e-05,0.0,5.684341886080801e-13,1.1368683772161603e-12,-3.637978807091403e-11,340.650652173913,70,255,0,0
34.750000000000355,35.727225483559785,51.275376783342395,1370.0,6.915489132097719e-05,-2.2833804337096808e-05,-1.8189894035458565e-12,0.0,-1.1368683772161603e-12,5.169878828456276e-24,340.6418478260869,70,255,0,0
34.80000000000035,35.72722894130435,51.275375641652175,1370.0,6.915489126413377e-05,-2.2833804450783646e-05,0.0,0.0,1.1368683772161603e-12,3.63797880709192e-11,340.6330434782608,70,255,0,0
34.85000000000035,35.727232399048916,51.275374499961956,1370.0,6.915489132097719e-05,-2.283380422340997e-05,1.8189894035458565e-12,5.684341886080801e-13,1.1368683772161603e-12,5.169878828456276e-24,340.6242391304347,70,255,0,0
34.900000000000354,35.72723585679348,51.27537335827174,1370.0,6.915489132097719e-05,-2.2833804337096808e-05,0.0,0.0,-2.2737367544323206e-12,-3.637978807091403e-11,340.61543478260865,70,255,0,0
34.95000000000036,35.727239314538046,51.27537221658152,1370.0,6.915489132097719e-05,-2.2833804450783646e-05,-1.8189894035458565e-12,0.0,0.0,5.169878828456276e-24,340.6066304347826,70,255,0,0
35.000000000000355,35.72724277228261,51.275371074891304,1370.0,6.915489132097719e-05,-2.2833804337096808e-05,0.0,-5.684341886080801e-13,1.1368683772161603e-12,3.63797880709192e-11,340.59782608695645,70,255,0,0
35.05000000000035,35.72724623002718,51.27536993320109,1370.0,6.915489126413377e-05,-2.2833804337096808e-05,1.8189894035458565e-12,-5.684341886080801e-13,0.0,5.169878828456276e-24,340.5890217391304,70,255,0,0
35.10000000000036,35.72724968777174,51.27536879151087,1370.0,6.915489126413377e-05,-2.2833804337096808e-05,0.0,5.684341886080801e-13,0.0,-3.637978807091403e-11,340.5802173913043,70,255,0,0
35.15000000000036,35.72725314551631,51.27536764982065,1370.0,6.915489132097719e-05,-2.2833804337096808e-05,-1.8189894035458565e-12,0.0,0.0,5.169878828456276e-24,340.5714130434782,70,255,0,0
35.20000000000036,35.72725660326087,51.27536650813044,1370.0,6.915489126413377e-05,-2.2833804337096808e-05,0.0,0.0,0.0,3.63797880709192e-11,340.5626086956521,70,255,0,0
35.250000000000355,35.72726006100544,51.27536536644022,1370.0,6.915489132097719e-05,-2.2833804337096808e-05,1.8189894035458565e-12,5.684341886080801e-13,0.0,5.169878828456276e-24,340.55380434782603,70,255,0,0
35.30000000000036,35.72726351875,51.27536422475,1370.0,6.915489132097719e-05,-2.2833804337096808e-05,0.0,0.0,0.0,-3.637978807091403e-11,340.54499999999996,70,255,0,0
35.350000000000364,35.72726697649457,51.27536308305978,1370.0,6.915489132097719e-05,-2.2833804337096808e-05,-1.8189894035458565e-12,0.0,0.0,5.169878828456276e-24,340.53619565217383,70,255,0,0
35.40000000000036,35.72727043423913,51.27536194136957,1370.0,6.915489132097719e-05,-2.2833804337096808e-05,0.0,-5.684341886080801e-13,-1.1368683772161603e-12,3.63797880709192e-11,340.52739130434776,70,255,0,0
35.45000000000036,35.7272738919837,51.27536079967935,1370.0,6.915489126413377e-05,-2.2833804450783646e-05,1.8189894035458565e-12,-5.684341886080801e-13,0.0,5.169878828456276e-24,340.5185869565217,70,255,0,0
35.50000000000036,35.72727734972826,51.27535965798913,1370.0,6.915489126413377e-05,-2.2833804337096808e-05,0.0,5.684341886080801e-13,1.1368683772161603e-12,-3.637978807091403e-11,340.5097826086956,70,255,0,0
35.55000000000037,35.72728080747283,51.275358516298915,1370.0,6.915489132097719e-05,-2.2833804337096808e-05,-1.8189894035458565e-12,0.0,-1.1368683772161603e-12,5.169878828456276e-24,340.5009782608695,70,255,0,0
35.600000000000364,35.72728426521739,51.275357374608696,1370.0,6.915489126413377e-05,-2.2833804450783646e-05,0.0,0.0,1.1368683772161603e-12,3.63797880709192e-11,340.4921739130434,70,255,0,0
35.65000000000036,35.72728772296196,51.275356232918476,1370.0,6.915489132097719e-05,-2.283380422340997e-05,1.8189894035458565e-12,5.684341886080801e-13,1.1368683772161603e-12,5.169878828456276e-24,340.48336956521734,70,255,0,0
35.700000000000365,35.72729118070652,51.27535509122826,1370.0,6.915489132097719e-05,-2.2833804337096808e-05,0.0,0.0,-2.2737367544323206e-12,-3.637978807091403e-11,340.4745652173912,70,255,0,0
35.75000000000037,35.72729463845109,51.275353949538044,1370.0,6.915489132097719e-05,-2.2833804450783646e-05,-1.8189894035458565e-12,0.0,1.1368683772161603e-12,5.169878828456276e-24,340.46576086956514,70,255,0,0
35.80000000000037,35.72729809619565,51.275352807847824,1370.0,6.915489132097719e-05,-2.283380422340997e-05,0.0,-5.684341886080801e-13,1.1368683772161603e-12,3.63797880709192e-11,340.4569565217391,70,255,0,0
35.850000000000364,35.72730155394022,51.27535166615761,1370.0,6.915489126413377e-05,-2.2833804337096808e-05,1.8189894035458565e-12,-1.1368683772161603e-12,-2.2737367544323206e-12,5.169878828456276e-24,340.448152173913,70,255,0,0
35.90000000000037,35.727305011684784,51.27535052446739,1370.0,6.915489120729035e-05,-2.2833804450783646e-05,0.0,5.684341886080801e-13,0.0,-3.637978807091403e-11,340.4393478260869,70,255,0,0
35.95000000000037,35.727308469429346,51.27534938277717,1370.0,6.915489132097719e-05,-2.2833804337096808e-05,-1.8189894035458565e-12,1.1368683772161603e-12,1.1368683772161603e-12,5.169878828456276e-24,340.4305434782608,70,255,0,0
36.00000000000037,35.727311927173915,51.27534824108696,1370.0,6.915489132097719e-05,-2.2833804337096808e-05,0.0,0.0,0.0,3.63797880709192e-11,340.42173913043473,70,255,0,0
36.05000000000037,35.72731538491848,51.27534709939674,1370.0,6.915489132097719e-05,-2.2833804337096808e-05,1.8189894035458565e-12,0.0,0.0,5.169878828456276e-24,340.41293478260866,70,255,0,0
36.10000000000037,35.727318842663045,51.27534595770652,1370.0,6.915489132097719e-05,-2.2833804337096808e-05,0.0,0.0,0.0,-3.637978807091403e-11,340.40413043478253,70,255,0,0
36.150000000000375,35.72732230040761,51.27534481601631,1370.0,6.915489132097719e-05,-2.2833804337096808e-05,-1.8189894035458565e-12,0.0,0.0,5.169878828456276e-24,340.39532608695646,70,255,0,0
36.20000000000037,35.727325758152176,51.27534367432609,1370.0,6.915489132097719e-05,-2.2833804337096808e-05,0.0,-5.684341886080801e-13,0.0,3.63797880709192e-11,340.3865217391304,70,255,0,0
36.25000000000037,35.72732921589674,51.27534253263587,1370.0,6.915489126413377e-05,-2.2833804337096808e-05,1.8189894035458565e-12,0.0,0.0,5.169878828456276e-24,340.37771739130426,70,255,0,0
36.300000000000374,35.72733267364131,51.275341390945655,1370.0,6.915489132097719e-05,-2.2833804337096808e-05,0.0,5.684341886080801e-13,0.0,-3.637978807091403e-11,340.3689130434782,70,255,0,0
36.35000000000038,35.72733613138587,51.275340249255436,1370.0,6.915489132097719e-05,-2.2833804337096808e-05,-1.8189894035458565e-12,0.0,0.0,5.169878828456276e-24,340.3601086956521,70,255,0,0
36.400000000000375,35.72733958913044,51.275339107565216,1370.0,6.915489132097719e-05,-2.2833804337096808e-05,0.0,0.0,0.0,3.63797880709192e-11,340.35130434782604,70,255,0,0
36.45000000000037,35.727343046875,51.275337965875,1370.0,6.915489132097719e-05,-2.2833804337096808e-05,1.8189894035458565e-12,0.0,0.0,5.169878828456276e-24,340.3424999999999,70,255,0,0
36.50000000000038,35.72734650461957,51.275336824184784,1370.0,6.915489132097719e-05,-2.2833804337096808e-05,0.0,0.0,0.0,-3.637978807091403e-11,340.33369565217384,70,255,0,0
36.55000000000038,35.72734996236413,51.275335682494564,1370.0,6.915489132097719e-05,-2.2833804337096808e-05,-1.8189894035458565e-12,0.0,0.0,5.169878828456276e-24,340.3248913043478,70,255,0,0
36.60000000000038,35.7273534201087,51.27533454080435,1370.0,6.915489132097719e-05,-2.2833804337096808e-05,0.0,-5.684341886080801e-13,-1.1368683772161603e-12,3.63797880709192e-11,340.3160869565217,70,255,0,0
36.650000000000375,35.72735687785326,51.27533339911413,1370.0,6.915489126413377e-05,-2.2833804450783646e-05,1.8189894035458565e-12,0.0,0.0,5.169878828456276e-24,340.3072826086956,70,255,0,0
36.70000000000038,35.72736033559783,51.27533225742391,1370.0,6.915489132097719e-05,-2.2833804337096808e-05,0.0,5.684341886080801e-13,1.1368683772161603e-12,-3.637978807091403e-11,340.2984782608695,70,255,0,0
36.750000000000384,35.72736379334239,51.2753311157337,1370.0,6.915489132097719e-05,-2.2833804337096808e-05,-1.8189894035458565e-12,0.0,-1.1368683772161603e-12,5.169878828456276e-24,340.28967391304343,70,255,0,0
36.80000000000038,35.72736725108696,51.27532997404348,1370.0,6.915489132097719e-05,-2.2833804450783646e-05,0.0,0.0,1.1368683772161603e-12,3.63797880709192e-11,340.2808695652173,70,255,0,0
36.85000000000038,35.72737070883152,51.27532883235326,1370.0,6.915489132097719e-05,-2.283380422340997e-05,1.8189894035458565e-12,0.0,1.1368683772161603e-12,5.169878828456276e-24,340.27206521739123,70,255,0,0
36.90000000000038,35.72737416657609,51.27532769066305,1370.0,6.915489132097719e-05,-2.2833804337096808e-05,0.0,0.0,-2.2737367544323206e-12,-3.637978807091403e-11,340.26326086956516,70,255,0,0
36.95000000000039,35.72737762432065,51.27532654897283,1370.0,6.915489132097719e-05,-2.2833804450783646e-05,-1.8189894035458565e-12,0.0,1.1368683772161603e-12,5.169878828456276e-24,340.2544565217391,70,255,0,0
37.000000000000384,35.72738108206522,51.27532540728261,1370.0,6.915489132097719e-05,-2.283380422340997e-05,0.0,-5.684341886080801e-13,1.1368683772161603e-12,3.63797880709192e-11,340.24565217391296,70,255,0,0
37.05000000000038,35.72738453980978,51.275324265592396,1370.0,6.915489126413377e-05,-2.2833804337096808e-05,1.8189894035458565e-12,0.0,-2.2737367544323206e-12,5.169878828456276e-24,340.2368478260869,70,255,0,0
37.100000000000385,35.72738799755435,51.275323123902176,1370.0,6.915489132097719e-05,-2.2833804450783646e-05,0.0,5.684341886080801e-13,0.0,-3.637978807091403e-11,340.2280434782608,70,255,0,0
37.15000000000039,35.727391455298914,51.275321982211956,1370.0,6.915489132097719e-05,-2.2833804337096808e-05,-1.8189894035458565e-12,0.0,1.1368683772161603e-12,5.169878828456276e-24,340.21923913043474,70,255,0,0
37.20000000000039,35.72739491304348,51.27532084052174,1370.0,6.915489132097719e-05,-2.2833804337096808e-05,0.0,0.0,0.0,3.63797880709192e-11,340.2104347826086,70,255,0,0
37.250000000000384,35.727398370788045,51.275319698831524,1370.0,6.915489132097719e-05,-2.2833804337096808e-05,1.8189894035458565e-12,0.0,0.0,5.169878828456276e-24,340.20163043478254,70,255,0,0
37.30000000000039,35.727401828532614,51.275318557141304,1370.0,6.915489132097719e-05,-2.2833804337096808e-05,0.0,-5.684341886080801e-13,0.0,-3.637978807091403e-11,340.1928260869565,70,255,0,0
37.35000000000039,35.727405286277175,51.275317415451084,1370.0,6.915489126413377e-05,-2.2833804337096808e-05,-1.8189894035458565e-12,0.0,0.0,5.169878828456276e-24,340.18402173913034,70,255,0,0
37.40000000000039,35.72740874402174,51.27531627376087,1370.0,6.915489132097719e-05,-2.2833804337096808e-05,0.0,0.0,0.0,3.63797880709192e-11,340.1752173913043,70,255,0,0
37.45000000000039,35.727412201766306,51.27531513207065,1370.0,6.915489126413377e-05,-2.2833804337096808e-05,1.8189894035458565e-12,0.0,0.0,5.169878828456276e-24,340.1664130434782,70,255,0,0
37.50000000000039,35.72741565951087,51.27531399038043,1370.0,6.915489132097719e-05,-2.2833804337096808e-05,0.0,5.684341886080801e-13,0.0,-3.637978807091403e-11,340.15760869565213,70,255,0,0
37.550000000000395,35.72741911725544,51.27531284869022,1370.0,6.915489132097719e-05,-2.2833804337096808e-05,-1.8189894035458565e-12,0.0,-1.1368683772161603e-12,5.169878828456276e-24,340.148804347826,70,255,0,0
37.60000000000039,35.727422575,51.275311707,1370.0,6.915489132097719e-05,-2.2833804450783646e-05,0.0,-5.684341886080801e-13,0.0,3.63797880709192e-11,340.13999999999993,70,255,0,0
37.65000000000039,35.72742603274457,51.27531056530978,1370.0,6.915489126413377e-05,-2.2833804337096808e-05,1.8189894035458565e-12,0.0,2.2737367544323206e-12,5.169878828456276e-24,340.13119565217386,70,255,0,0
37.700000000000394,35.72742949048913,51.27530942361957,1370.0,6.915489132097719e-05,-2.283380422340997e-05,0.0,1.1368683772161603e-12,-1.1368683772161603e-12,-3.637978807091403e-11,340.1223913043478,70,255,0,0
37.7500000000004,35.7274329482337,51.27530828192935,1370.0,6.91548913778206e-05,-2.2833804450783646e-05,-1.8189894035458565e-12,0.0,-1.1368683772161603e-12,5.169878828456276e-24,340.11358695652166,70,255,0,0
37.800000000000395,35.72743640597826,51.27530714023913,1370.0,6.915489132097719e-05,-2.2833804337096808e-05,0.0,-1.1368683772161603e-12,1.1368683772161603e-12,3.63797880709192e-11,340.1047826086956,70,255,0,0
37.85000000000039,35.72743986372283,51.275305998548916,1370.0,6.915489126413377e-05,-2.2833804337096808e-05,1.8189894035458565e-12,0.0,-1.1368683772161603e-12,5.169878828456276e-24,340.0959782608695,70,255,0,0
37.9000000000004,35.72744332146739,51.275304856858696,1370.0,6.915489132097719e-05,-2.2833804450783646e-05,0.0,5.684341886080801e-13,0.0,-3.637978807091403e-11,340.0871739130434,70,255,0,0
37.9500000000004,35.72744677921196,51.27530371516848,1370.0,6.915489132097719e-05,-2.2833804337096808e-05,-1.8189894035458565e-12,0.0,1.1368683772161603e-12,5.169878828456276e-24,340.0783695652173,70,255,0,0
38.0000000000004,35.72745023695652,51.275302573478264,1370.0,6.915489132097719e-05,-2.2833804337096808e-05,0.0,-5.684341886080801e-13,0.0,3.63797880709192e-11,340.06956521739124,70,255,0,0
38.050000000000395,35.72745369470109,51.275301431788044,1370.0,6.915489126413377e-05,-2.2833804337096808e-05,1.8189894035458565e-12,0.0,0.0,5.169878828456276e-24,340.0607608695652,70,255,0,0
38.1000000000004,35.72745715244565,51.275300290097825,1370.0,6.915489132097719e-05,-2.2833804337096808e-05,0.0,1.1368683772161603e-12,0.0,-3.637978807091403e-11,340.05195652173904,70,255,0,0
38.150000000000404,35.72746061019022,51.27529914840761,1370.0,6.91548913778206e-05,-2.2833804337096808e-05,-1.8189894035458565e-12,0.0,0.0,5.169878828456276e-24,340.043152173913,70,255,0,0
38.2000000000004,35.72746406793478,51.27529800671739,1370.0,6.915489132097719e-05,-2.2833804337096808e-05,0.0,-1.1368683772161603e-12,0.0,3.63797880709192e-11,340.0343478260869,70,255,0,0
38.2500000000004,35.72746752567935,51.27529686502717,1370.0,6.915489126413377e-05,-2.2833804337096808e-05,1.8189894035458565e-12,0.0,0.0,5.169878828456276e-24,340.02554347826083,70,255,0,0
38.3000000000004,35.72747098342391,51.27529572333696,1370.0,6.915489132097719e-05,-2.2833804337096808e-05,0.0,5.684341886080801e-13,0.0,-3.637978807091403e-11,340.0167391304347,70,255,0,0
38.350000000000406,35.72747444116848,51.27529458164674,1370.0,6.915489132097719e-05,-2.2833804337096808e-05,-1.8189894035458565e-12,0.0,0.0,5.169878828456276e-24,340.00793478260863,70,255,0,0
38.400000000000404,35.727477898913044,51.27529343995652,1370.0,6.915489132097719e-05,-2.2833804337096808e-05,0.0,-5.684341886080801e-13,0.0,3.63797880709192e-11,339.99913043478256,70,255,0,0
38.4500000000004,35.72748135665761,51.27529229826631,1370.0,6.915489126413377e-05,-2.2833804337096808e-05,1.8189894035458565e-12,0.0,0.0,5.169878828456276e-24,339.99032608695643,70,255,0,0
38.500000000000405,35.727484814402175,51.27529115657609,1370.0,6.915489132097719e-05,-2.2833804337096808e-05,0.0,1.1368683772161603e-12,0.0,-3.637978807091403e-11,339.98152173913036,70,255,0,0
38.55000000000041,35.72748827214674,51.27529001488587,1370.0,6.91548913778206e-05,-2.2833804337096808e-05,-1.8189894035458565e-12,0.0,0.0,5.169878828456276e-24,339.9727173913043,70,255,0,0
38.600000000000406,35.727491729891305,51.275288873195656,1370.0,6.915489132097719e-05,-2.2833804337096808e-05,0.0,-1.1368683772161603e-12,0.0,3.63797880709192e-11,339.9639130434782,70,255,0,0
38.650000000000404,35.727495187635874,51.275287731505436,1370.0,6.915489126413377e-05,-2.2833804337096808e-05,1.8189894035458565e-12,0.0,0.0,5.169878828456276e-24,339.9551086956521,70,255,0,0
38.70000000000041,35.727498645380436,51.27528658981522,1370.0,6.915489132097719e-05,-2.2833804337096808e-05,0.0,5.684341886080801e-13,0.0,-3.637978807091403e-11,339.946304347826,70,255,0,0
38.75000000000041,35.727502103125005,51.275285448125004,1370.0,6.915489132097719e-05,-2.2833804337096808e-05,-1.8189894035458565e-12,-5.684341886080801e-13,-1.1368683772161603e-12,5.169878828456276e-24,339.93749999999994,70,255,0,0
38.80000000000041,35.72750556086957,51.275284306434784,1370.0,6.915489126413377e-05,-2.2833804450783646e-05,0.0,-5.684341886080801e-13,0.0,3.63797880709192e-11,339.9286956521739,70,255,0,0
38.850000000000406,35.72750901861413,51.275283164744565,1370.0,6.915489126413377e-05,-2.2833804337096808e-05,1.8189894035458565e-12,0.0,2.2737367544323206e-12,5.169878828456276e-24,339.91989130434774,70,255,0,0
38.90000000000041,35.7275124763587,51.27528202305435,1370.0,6.915489126413377e-05,-2.283380422340997e-05,0.0,1.1368683772161603e-12,-1.1368683772161603e-12,-3.637978807091403e-11,339.9110869565217,70,255,0,0
38.950000000000415,35.72751593410326,51.27528088136413,1370.0,6.91548913778206e-05,-2.2833804450783646e-05,-1.8189894035458565e-12,0.0,-1.1368683772161603e-12,5.169878828456276e-24,339.9022826086956,70,255,0,0
39.00000000000041,35.72751939184783,51.27527973967391,1370.0,6.915489126413377e-05,-2.2833804337096808e-05,0.0,-1.1368683772161603e-12,1.1368683772161603e-12,3.63797880709192e-11,339.8934782608695,70,255,0,0
39.05000000000041,35.72752284959239,51.2752785979837,1370.0,6.915489126413377e-05,-2.2833804337096808e-05,1.8189894035458565e-12,5.684341886080801e-13,-1.1368683772161603e-12,5.169878828456276e-24,339.8846739130434,70,255,0,0
39.10000000000041,35.72752630733696,51.27527745629348,1370.0,6.915489132097719e-05,-2.2833804450783646e-05,0.0,5.684341886080801e-13,0.0,-3.637978807091403e-11,339.87586956521733,70,255,0,0
39.15000000000042,35.72752976508152,51.27527631460326,1370.0,6.915489132097719e-05,-2.2833804337096808e-05,-1.8189894035458565e-12,0.0,1.1368683772161603e-12,5.169878828456276e-24,339.86706521739126,70,255,0,0
39.200000000000415,35.72753322282609,51.27527517291304,1370.0,6.915489132097719e-05,-2.2833804337096808e-05,0.0,-5.684341886080801e-13,0.0,3.63797880709192e-11,339.85826086956513,70,255,0,0
39.25000000000041,35.72753668057065,51.27527403122283,1370.0,6.915489126413377e-05,-2.2833804337096808e-05,1.8189894035458565e-12,-5.684341886080801e-13,0.0,5.169878828456276e-24,339.84945652173906,70,255,0,0
39.300000000000416,35.72754013831522,51.27527288953261,1370.0,6.915489126413377e-05,-2.2833804337096808e-05,0.0,1.1368683772161603e-12,0.0,-3.637978807091403e-11,339.840652173913,70,255,0,0
39.35000000000042,35.72754359605978,51.27527174784239,1370.0,6.91548913778206e-05,-2.2833804337096808e-05,-1.8189894035458565e-12,0.0,0.0,5.169878828456276e-24,339.8318478260869,70,255,0,0
39.40000000000042,35.72754705380435,51.275270606152176,1370.0,6.915489126413377e-05,-2.2833804337096808e-05,0.0,-1.1368683772161603e-12,0.0,3.63797880709192e-11,339.8230434782608,70,255,0,0
39.450000000000415,35.72755051154891,51.27526946446196,1370.0,6.915489126413377e-05,-2.2833804337096808e-05,1.8189894035458565e-12,5.684341886080801e-13,0.0,5.169878828456276e-24,339.8142391304347,70,255,0,0
39.50000000000042,35.72755396929348,51.27526832277174,1370.0,6.915489132097719e-05,-2.2833804337096808e-05,0.0,5.684341886080801e-13,0.0,-3.637978807091403e-11,339.80543478260864,70,255,0,0
39.55000000000042,35.72755742703804,51.275267181081524,1370.0,6.915489132097719e-05,-2.2833804337096808e-05,-1.8189894035458565e-12,0.0,0.0,5.169878828456276e-24,339.7966304347825,70,255,0,0
39.60000000000042,35.72756088478261,51.275266039391305,1370.0,6.915489132097719e-05,-2.2833804337096808e-05,0.0,-5.684341886080801e-13,0.0,3.63797880709192e-11,339.78782608695644,70,255,0,0
39.65000000000042,35.727564342527174,51.275264897701085,1370.0,6.915489126413377e-05,-2.2833804337096808e-05,1.8189894035458565e-12,-5.684341886080801e-13,0.0,5.169878828456276e-24,339.77902173913037,70,255,0,0
39.70000000000042,35.72756780027174,51.27526375601087,1370.0,6.915489126413377e-05,-2.2833804337096808e-05,0.0,1.1368683772161603e-12,-1.1368683772161603e-12,-3.637978807091403e-11,339.7702173913043,70,255,0,0
39.750000000000426,35.727571258016305,51.27526261432065,1370.0,6.91548913778206e-05,-2.2833804450783646e-05,-1.8189894035458565e-12,0.0,0.0,5.169878828456276e-24,339.76141304347817,70,255,0,0
39.80000000000042,35.72757471576087,51.27526147263043,1370.0,6.915489126413377e-05,-2.2833804337096808e-05,0.0,-1.1368683772161603e-12,2.2737367544323206e-12,3.63797880709192e-11,339.7526086956521,70,255,0,0
39.85000000000042,35.727578173505435,51.27526033094022,1370.0,6.915489126413377e-05,-2.283380422340997e-05,1.8189894035458565e-12,5.684341886080801e-13,-1.1368683772161603e-12,5.169878828456276e-24,339.743804347826,70,255,0,0
39.900000000000425,35.727581631250004,51.27525918925,1370.0,6.915489132097719e-05,-2.2833804450783646e-05,0.0,5.684341886080801e-13,-1.1368683772161603e-12,-3.637978807091403e-11,339.73499999999996,70,255,0,0
39.95000000000043,35.727585088994566,51.27525804755978,1370.0,6.915489132097719e-05,-2.2833804337096808e-05,-1.8189894035458565e-12,0.0,1.1368683772161603e-12,5.169878828456276e-24,339.7261956521738,70,255,0,0
40.000000000000426,35.727588546739135,51.27525690586957,1370.0,6.915489132097719e-05,-2.2833804337096808e-05,0.0,-5.684341886080801e-13,-1.1368683772161603e-12,3.63797880709192e-11,339.71739130434776,70,255,0,0
40.05000000000042,35.7275920044837,51.27525576417935,1370.0,6.915489126413377e-05,-2.2833804450783646e-05,1.8189894035458565e-12,-5.684341886080801e-13,1.1368683772161603e-12,5.169878828456276e-24,339.7085869565217,70,255,0,0
40.10000000000043,35.727595462228265,51.27525462248913,1370.0,6.915489126413377e-05,-2.283380422340997e-05,0.0,0.0,1.1368683772161603e-12,-3.637978807091403e-11,339.69978260869556,70,255,0,0
40.15000000000043,35.72759891997283,51.275253480798916,1370.0,6.915489126413377e-05,-2.2833804337096808e-05,-1.8189894035458565e-12,0.0,-2.2737367544323206e-12,5.169878828456276e-24,339.6909782608695,70,255,0,0
40.20000000000043,35.72760237771739,51.2752523391087,1370.0,6.915489126413377e-05,-2.2833804450783646e-05,0.0,5.684341886080801e-13,0.0,3.63797880709192e-11,339.6821739130434,70,255,0,0
40.250000000000426,35.72760583546196,51.27525119741848,1370.0,6.915489132097719e-05,-2.2833804337096808e-05,1.8189894035458565e-12,5.684341886080801e-13,1.1368683772161603e-12,5.169878828456276e-24,339.67336956521734,70,255,0,0
40.30000000000043,35.72760929320652,51.275250055728264,1370.0,6.915489132097719e-05,-2.2833804337096808e-05,0.0,0.0,0.0,-3.637978807091403e-11,339.6645652173912,70,255,0,0
40.350000000000435,35.72761275095109,51.275248914038045,1370.0,6.915489132097719e-05,-2.2833804337096808e-05,-1.8189894035458565e-12,0.0,0.0,5.169878828456276e-24,339.65576086956514,70,255,0,0
40.40000000000043,35.72761620869565,51.275247772347825,1370.0,6.915489132097719e-05,-2.2833804337096808e-05,0.0,-5.684341886080801e-13,0.0,3.63797880709192e-11,339.64695652173907,70,255,0,0
40.45000000000043,35.72761966644022,51.27524663065761,1370.0,6.915489126413377e-05,-2.2833804337096808e-05,1.8189894035458565e-12,-5.684341886080801e-13,0.0,5.169878828456276e-24,339.638152173913,70,255,0,0
40.50000000000043,35.72762312418478,51.27524548896739,1370.0,6.915489126413377e-05,-2.2833804337096808e-05,0.0,5.684341886080801e-13,0.0,-3.637978807091403e-11,339.62934782608687,70,255,0,0
40.55000000000044,35.72762658192935,51.27524434727717,1370.0,6.915489132097719e-05,-2.2833804337096808e-05,-1.8189894035458565e-12,0.0,0.0,5.169878828456276e-24,339.6205434782608,70,255,0,0
40.600000000000435,35.72763003967391,51.27524320558696,1370.0,6.915489126413377e-05,-2.2833804337096808e-05,0.0,0.0,0.0,3.63797880709192e-11,339.6117391304347,70,255,0,0
40.65000000000043,35.72763349741848,51.27524206389674,1370.0,6.915489132097719e-05,-2.2833804337096808e-05,1.8189894035458565e-12,5.684341886080801e-13,0.0,5.169878828456276e-24,339.6029347826086,70,255,0,0
40.700000000000436,35.72763695516304,51.27524092220652,1370.0,6.915489132097719e-05,-2.2833804337096808e-05,0.0,0.0,0.0,-3.637978807091403e-11,339.5941304347825,70,255,0,0
40.75000000000044,35.72764041290761,51.27523978051631,1370.0,6.915489132097719e-05,-2.2833804337096808e-05,-1.8189894035458565e-12,0.0,0.0,5.169878828456276e-24,339.58532608695646,70,255,0,0
40.80000000000044,35.72764387065217,51.27523863882609,1370.0,6.915489132097719e-05,-2.2833804337096808e-05,0.0,-5.684341886080801e-13,0.0,3.63797880709192e-11,339.5765217391304,70,255,0,0
40.850000000000435,35.72764732839674,51.27523749713587,1370.0,6.915489126413377e-05,-2.2833804337096808e-05,1.8189894035458565e-12,-5.684341886080801e-13,0.0,5.169878828456276e-24,339.56771739130426,70,255,0,0
40.90000000000044,35.727650786141304,51.27523635544566,1370.0,6.915489126413377e-05,-2.2833804337096808e-05,0.0,5.684341886080801e-13,-1.1368683772161603e-12,-3.637978807091403e-11,339.5589130434782,70,255,0,0
40.95000000000044,35.72765424388587,51.27523521375544,1370.0,6.915489132097719e-05,-2.2833804450783646e-05,-1.8189894035458565e-12,0.0,-1.1368683772161603e-12,5.169878828456276e-24,339.5501086956521,70,255,0,0
41.00000000000044,35.727657701630434,51.27523407206522,1370.0,6.915489126413377e-05,-2.2833804450783646e-05,0.0,0.0,2.2737367544323206e-12,3.63797880709192e-11,339.541304347826,70,255,0,0
41.05000000000044,35.727661159375,51.275232930375,1370.0,6.915489132097719e-05,-2.283380422340997e-05,1.8189894035458565e-12,5.684341886080801e-13,1.1368683772161603e-12,5.169878828456276e-24,339.5324999999999,70,255,0,0
41.10000000000044,35.727664617119565,51.275231788684785,1370.0,6.915489132097719e-05,-2.2833804337096808e-05,0.0,0.0,-2.2737367544323206e-12,-3.637978807091403e-11,339.52369565217384,70,255,0,0
41.150000000000446,35.727668074864134,51.275230646994565,1370.0,6.915489132097719e-05,-2.2833804450783646e-05,-1.8189894035458565e-12,0.0,0.0,5.169878828456276e-24,339.51489130434777,70,255,0,0
41.20000000000044,35.727671532608696,51.275229505304345,1370.0,6.915489132097719e-05,-2.2833804337096808e-05,0.0,-5.684341886080801e-13,1.1368683772161603e-12,3.63797880709192e-11,339.50608695652164,70,255,0,0
41.25000000000044,35.727674990353265,51.27522836361413,1370.0,6.915489126413377e-05,-2.2833804337096808e-05,1.8189894035458565e-12,-5.684341886080801e-13,0.0,5.169878828456276e-24,339.49728260869557,70,255,0,0
41.300000000000445,35.727678448097826,51.27522722192391,1370.0,6.915489126413377e-05,-2.2833804337096808e-05,0.0,5.684341886080801e-13,0.0,-3.637978807091403e-11,339.4884782608695,70,255,0,0
41.35000000000045,35.727681905842395,51.27522608023369,1370.0,6.915489132097719e-05,-2.2833804337096808e-05,-1.8189894035458565e-12,0.0,0.0,5.169878828456276e-24,339.4796739130434,70,255,0,0
41.400000000000446,35.72768536358696,51.27522493854348,1370.0,6.915489126413377e-05,-2.2833804337096808e-05,0.0,0.0,0.0,3.63797880709192e-11,339.4708695652173,70,255,0,0
41.45000000000044,35.727688821331526,51.27522379685326,1370.0,6.915489132097719e-05,-2.2833804337096808e-05,1.8189894035458565e-12,5.684341886080801e-13,0.0,5.169878828456276e-24,339.4620652173912,70,255,0,0
41.50000000000045,35.72769227907609,51.27522265516304,1370.0,6.915489132097719e-05,-2.2833804337096808e-05,0.0,0.0,0.0,-3.637978807091403e-11,339.45326086956516,70,255,0,0
41.55000000000045,35.72769573682066,51.27522151347283,1370.0,6.915489132097719e-05,-2.2833804337096808e-05,-1.8189894035458565e-12,-5.684341886080801e-13,0.0,5.169878828456276e-24,339.444456521739,70,255,0,0
41.60000000000045,35.72769919456522,51.27522037178261,1370.0,6.915489126413377e-05,-2.2833804337096808e-05,0.0,-5.684341886080801e-13,0.0,3.63797880709192e-11,339.43565217391296,70,255,0,0
41.650000000000446,35.72770265230978,51.27521923009239,1370.0,6.915489126413377e-05,-2.2833804337096808e-05,1.8189894035458565e-12,5.684341886080801e-13,0.0,5.169878828456276e-24,339.4268478260869,70,255,0,0
41.70000000000045,35.72770611005435,51.27521808840218,1370.0,6.915489132097719e-05,-2.2833804337096808e-05,0.0,5.684341886080801e-13,-1.1368683772161603e-12,-3.637978807091403e-11,339.4180434782608,70,255,0,0
41.750000000000455,35.72770956779891,51.27521694671196,1370.0,6.915489132097719e-05,-2.2833804450783646e-05,-1.8189894035458565e-12,0.0,0.0,5.169878828456276e-24,339.4092391304347,70,255,0,0
41.80000000000045,35.72771302554348,51.27521580502174,1370.0,6.915489132097719e-05,-2.2833804337096808e-05,0.0,0.0,2.2737367544323206e-12,3.63797880709192e-11,339.4004347826086,70,255,0,0
41.85000000000045,35.72771648328804,51.275214663331525,1370.0,6.915489132097719e-05,-2.283380422340997e-05,1.8189894035458565e-12,0.0,-1.1368683772161603e-12,5.169878828456276e-24,339.39163043478254,70,255,0,0
41.90000000000045,35.72771994103261,51.275213521641305,1370.0,6.915489132097719e-05,-2.2833804450783646e-05,0.0,0.0,-1.1368683772161603e-12,-3.637978807091403e-11,339.38282608695647,70,255,0,0
41.95000000000046,35.72772339877717,51.275212379951085,1370.0,6.915489132097719e-05,-2.2833804337096808e-05,-1.8189894035458565e-12,0.0,2.2737367544323206e-12,5.169878828456276e-24,339.37402173913034,70,255,0,0
42.000000000000455,35.72772685652174,51.27521123826087,1370.0,6.915489132097719e-05,-2.283380422340997e-05,0.0,-5.684341886080801e-13,-1.1368683772161603e-12,3.63797880709192e-11,339.36521739130427,70,255,0,0
42.05000000000045,35.7277303142663,51.27521009657065,1370.0,6.915489126413377e-05,-2.2833804450783646e-05,1.8189894035458565e-12,0.0,-1.1368683772161603e-12,5.169878828456276e-24,339.3564130434782,70,255,0,0
42.100000000000456,35.72773377201087,51.27520895488043,1370.0,6.915489132097719e-05,-2.2833804337096808e-05,0.0,5.684341886080801e-13,1.1368683772161603e-12,-3.637978807091403e-11,339.34760869565207,70,255,0,0
42.15000000000046,35.727737229755434,51.27520781319022,1370.0,6.915489132097719e-05,-2.2833804337096808e-05,-1.8189894035458565e-12,0.0,-1.1368683772161603e-12,5.169878828456276e-24,339.338804347826,70,255,0,0
42.20000000000046,35.7277406875,51.2752066715,1370.0,6.915489132097719e-05,-2.2833804450783646e-05,0.0,0.0,1.1368683772161603e-12,3.63797880709192e-11,339.3299999999999,70,255,0,0
42.250000000000455,35.727744145244564,51.27520552980978,1370.0,6.915489132097719e-05,-2.283380422340997e-05,1.8189894035458565e-12,0.0,1.1368683772161603e-12,5.169878828456276e-24,339.32119565217386,70,255,0,0
42.30000000000046,35.72774760298913,51.27520438811957,1370.0,6.915489132097719e-05,-2.2833804337096808e-05,0.0,0.0,-2.2737367544323206e-12,-3.637978807091403e-11,339.3123913043477,70,255,0,0
42.35000000000046,35.727751060733695,51.27520324642935,1370.0,6.915489132097719e-05,-2.2833804450783646e-05,-1.8189894035458565e-12,0.0,0.0,5.169878828456276e-24,339.30358695652166,70,255,0,0
42.40000000000046,35.727754518478264,51.27520210473913,1370.0,6.915489132097719e-05,-2.2833804337096808e-05,0.0,-5.684341886080801e-13,1.1368683772161603e-12,3.63797880709192e-11,339.2947826086956,70,255,0,0
42.45000000000046,35.727757976222826,51.27520096304892,1370.0,6.915489126413377e-05,-2.2833804337096808e-05,1.8189894035458565e-12,0.0,0.0,5.169878828456276e-24,339.2859782608695,70,255,0,0
42.50000000000046,35.727761433967395,51.2751998213587,1370.0,6.915489132097719e-05,-2.2833804337096808e-05,0.0,5.684341886080801e-13,0.0,-3.637978807091403e-11,339.2771739130434,70,255,0,0
42.550000000000466,35.727764891711956,51.27519867966848,1370.0,6.915489132097719e-05,-2.2833804337096808e-05,-1.8189894035458565e-12,0.0,0.0,5.169878828456276e-24,339.2683695652173,70,255,0,0
42.60000000000046,35.727768349456525,51.275197537978265,1370.0,6.915489132097719e-05,-2.2833804337096808e-05,0.0,0.0,0.0,3.63797880709192e-11,339.25956521739124,70,255,0,0
42.65000000000046,35.72777180720109,51.275196396288045,1370.0,6.915489132097719e-05,-2.2833804337096808e-05,1.8189894035458565e-12,0.0,0.0,5.169878828456276e-24,339.2507608695651,70,255,0,0
42.700000000000465,35.727775264945656,51.275195254597826,1370.0,6.915489132097719e-05,-2.2833804337096808e-05,0.0,0.0,0.0,-3.637978807091403e-11,339.24195652173904,70,255,0,0
42.75000000000047,35.72777872269022,51.27519411290761,1370.0,6.915489132097719e-05,-2.2833804337096808e-05,-1.8189894035458565e-12,0.0,0.0,5.169878828456276e-24,339.23315217391297,70,255,0,0
42.800000000000466,35.72778218043479,51.27519297121739,1370.0,6.915489132097719e-05,-2.2833804337096808e-05,0.0,-5.684341886080801e-13,-1.1368683772161603e-12,3.63797880709192e-11,339.2243478260869,70,255,0,0
42.85000000000046,35.72778563817935,51.275191829527174,1370.0,6.915489126413377e-05,-2.2833804450783646e-05,1.8189894035458565e-12,0.0,0.0,5.169878828456276e-24,339.21554347826077,70,255,0,0
42.90000000000047,35.72778909592392,51.275190687836954,1370.0,6.915489132097719e-05,-2.2833804337096808e-05,0.0,5.684341886080801e-13,1.1368683772161603e-12,-3.637978807091403e-11,339.2067391304347,70,255,0,0
42.95000000000047,35.72779255366848,51.27518954614674,1370.0,6.915489132097719e-05,-2.2833804337096808e-05,-1.8189894035458565e-12,0.0,-1.1368683772161603e-12,5.169878828456276e-24,339.1979347826086,70,255,0,0
43.00000000000047,35.72779601141305,51.27518840445652,1370.0,6.915489132097719e-05,-2.2833804450783646e-05,0.0,-1.1368683772161603e-12,1.1368683772161603e-12,3.63797880709192e-11,339.18913043478256,70,255,0,0
43.050000000000466,35.72779946915761,51.2751872627663,1370.0,6.915489120729035e-05,-2.283380422340997e-05,1.8189894035458565e-12,0.0,1.1368683772161603e-12,5.169878828456276e-24,339.1803260869564,70,255,0,0
43.10000000000047,35.72780292690217,51.27518612107609,1370.0,6.915489132097719e-05,-2.2833804337096808e-05,0.0,1.7053025658242404e-12,-2.2737367544323206e-12,-3.637978807091403e-11,339.17152173913036,70,255,0,0
43.150000000000475,35.72780638464674,51.27518497938587,1370.0,6.91548913778206e-05,-2.2833804450783646e-05,-1.8189894035458565e-12,0.0,1.1368683772161603e-12,5.169878828456276e-24,339.1627173913043,70,255,0,0
43.20000000000047,35.7278098423913,51.27518383769565,1370.0,6.915489132097719e-05,-2.283380422340997e-05,0.0,-1.1368683772161603e-12,1.1368683772161603e-12,3.63797880709192e-11,339.15391304347816,70,255,0,0
