t,lat,lon,alt,vx,vy,vz,ax,ay,az,yaw,mode,ledr,ledg,ledb
10.0,35.72546462878496,51.27601530393742,1370.0024029770866,6.915489123571107e-05,-2.28338043939399e-05,0.0,1.705322352513864e-12,1.1368618720031092e-12,0.0,345.0,70.0,0.0,255.0,0.0
10.05,35.72546809572604,51.276014171535216,1370.0024023773149,6.915489132097719e-05,-2.2833804337096808e-05,0.0,2.842269605438097e-13,5.684309360015627e-13,0.0,344.99119565217393,70.0,0.0,255.0,0.0
10.100000000000001,35.72547156266829,51.27601303913128,1370.0024017747492,6.915489126413377e-05,-2.2833804337096808e-05,0.0,0.0,-1.1368683772161603e-12,0.0,344.9823913043478,70.0,0.0,255.0,0.0
10.150000000000002,35.72547502961169,51.27601190672559,1370.0024011731148,6.915489132097719e-05,-2.2833804450783646e-05,0.0,5.684341886080801e-13,0.0,0.0,344.97358695652173,70.0,0.0,255.0,0.0
10.200000000000003,35.72547849655626,51.27601077431819,1370.002400570549,6.915489132097719e-05,-2.2833804337096808e-05,0.0,0.0,2.2737367544323206e-12,0.0,344.96478260869566,70.0,0.0,255.0,0.0
10.250000000000004,35.725481963501984,51.27600964190905,1370.0023999717087,6.915489132097719e-05,-2.283380422340997e-05,0.0,0.0,0.0,0.0,344.9559782608696,70.0,0.0,255.0,0.0
10.300000000000004,35.72548543044888,51.276008509498176,1370.0023993700743,6.915489132097719e-05,-2.2833804337096808e-05,0.0,-5.684341886080801e-13,-1.1368683772161603e-12,0.0,344.94717391304346,70.0,0.0,255.0,0.0
10.350000000000005,35.725488897396936,51.276007377085556,1370.0023987693712,6.915489126413377e-05,-2.2833804337096808e-05,0.0,0.0,0.0,0.0,344.9383695652174,70.0,0.0,255.0,0.0
10.400000000000006,35.72549236434615,51.276006244671215,1370.0023981677368,6.915489132097719e-05,-2.2833804337096808e-05,0.0,5.684341886080801e-13,-1.1368683772161603e-12,0.0,344.9295652173913,70.0,0.0,255.0,0.0
10.450000000000006,35.72549583129654,51.27600511225514,1370.0023975670338,6.915489132097719e-05,-2.2833804450783646e-05,0.0,-5.684341886080801e-13,0.0,0.0,344.92076086956524,70.0,0.0,255.0,0.0
10.500000000000007,35.72549929824808,51.27600397983733,1370.0023969681934,6.915489126413377e-05,-2.2833804337096808e-05,0.0,0.0,1.1368683772161603e-12,0.0,344.9119565217391,70.0,0.0,255.0,0.0
10.550000000000008,35.72550276520078,51.27600284741778,1370.002396366559,6.915489132097719e-05,-2.2833804337096808e-05,0.0,5.684341886080801e-13,0.0,0.0,344.90315217391304,70.0,0.0,255.0,0.0
10.600000000000009,35.72550623215464,51.27600171499651,1370.0023957649246,6.915489132097719e-05,-2.2833804337096808e-05,0.0,0.0,0.0,0.0,344.89434782608697,70.0,0.0,255.0,0.0
10.65000000000001,35.725509699109665,51.27600058257348,1370.0023951642215,6.915489132097719e-05,-2.2833804337096808e-05,0.0,0.0,0.0,0.0,344.88554347826084,70.0,0.0,255.0,0.0
10.70000000000001,35.72551316606585,51.275999450148745,1370.0023945635185,6.915489132097719e-05,-2.2833804337096808e-05,0.0,-5.684341886080801e-13,0.0,0.0,344.87673913043477,70.0,0.0,255.0,0.0
10.75000000000001,35.72551663302319,51.275998317722255,1370.0023939637467,6.915489126413377e-05,-2.2833804337096808e-05,0.0,0.0,0.0,0.0,344.8679347826087,70.0,0.0,255.0,0.0
10.800000000000011,35.72552009998171,51.27599718529404,1370.0023933630437,6.915489132097719e-05,-2.2833804337096808e-05,0.0,5.684341886080801e-13,0.0,0.0,344.8591304347826,70.0,0.0,255.0,0.0
10.850000000000012,35.725523566941376,51.27599605286407,1370.002392760478,6.915489132097719e-05,-2.2833804337096808e-05,0.0,-5.684341886080801e-13,-1.1368683772161603e-12,0.0,344.8503260869565,70.0,0.0,255.0,0.0
10.900000000000013,35.725527033902196,51.27599492043239,1370.0023921607062,6.915489126413377e-05,-2.2833804450783646e-05,0.0,0.0,0.0,0.0,344.8415217391304,70.0,0.0,255.0,0.0
10.950000000000014,35.72553050086419,51.27599378799895,1370.0023915609345,6.915489132097719e-05,-2.2833804337096808e-05,0.0,5.684341886080801e-13,1.1368683772161603e-12,0.0,344.83271739130436,70.0,0.0,255.0,0.0
11.000000000000014,35.72553396782733,51.27599265556379,1370.0023909602314,6.915489132097719e-05,-2.2833804337096808e-05,0.0,0.0,0.0,0.0,344.8239130434783,70.0,0.0,255.0,0.0
11.050000000000015,35.72553743479164,51.27599152312689,1370.0023903595284,6.915489132097719e-05,-2.2833804337096808e-05,0.0,0.0,0.0,0.0,344.81510869565216,70.0,0.0,255.0,0.0
11.100000000000016,35.7255409017571,51.27599039068825,1370.0023897597566,6.915489132097719e-05,-2.2833804337096808e-05,0.0,-5.684341886080801e-13,0.0,0.0,344.8063043478261,70.0,0.0,255.0,0.0
11.150000000000016,35.72554436872372,51.27598925824787,1370.0023891581222,6.915489126413377e-05,-2.2833804337096808e-05,0.0,0.0,0.0,0.0,344.7975,70.0,0.0,255.0,0.0
11.200000000000017,35.7255478356915,51.27598812580576,1370.0023885592818,6.915489132097719e-05,-2.2833804337096808e-05,0.0,5.684341886080801e-13,-1.1368683772161603e-12,0.0,344.7886956521739,70.0,0.0,255.0,0.0
11.250000000000018,35.72555130266045,51.275986993361904,1370.0023879576474,6.915489132097719e-05,-2.2833804450783646e-05,0.0,-5.684341886080801e-13,0.0,0.0,344.7798913043478,70.0,0.0,255.0,0.0
11.300000000000018,35.72555476963055,51.275985860916315,1370.0023873578757,6.915489126413377e-05,-2.2833804337096808e-05,0.0,0.0,1.1368683772161603e-12,0.0,344.77108695652174,70.0,0.0,255.0,0.0
11.35000000000002,35.7255582366018,51.275984728469005,1370.002386758104,6.915489132097719e-05,-2.2833804337096808e-05,0.0,5.684341886080801e-13,0.0,0.0,344.76228260869567,70.0,0.0,255.0,0.0
11.40000000000002,35.72556170357422,51.27598359601993,1370.0023861583322,6.915489132097719e-05,-2.2833804337096808e-05,0.0,-1.1368683772161603e-12,1.1368683772161603e-12,0.0,344.75347826086954,70.0,0.0,255.0,0.0
11.45000000000002,35.72556517054778,51.27598246356913,1370.0023855576292,6.915489120729035e-05,-2.283380422340997e-05,0.0,0.0,0.0,0.0,344.74467391304347,70.0,0.0,255.0,0.0
11.500000000000021,35.7255686375225,51.27598133111658,1370.0023849578574,6.915489132097719e-05,-2.2833804337096808e-05,0.0,1.1368683772161603e-12,-2.2737367544323206e-12,0.0,344.7358695652174,70.0,0.0,255.0,0.0
11.550000000000022,35.7255721044984,51.27598019866231,1370.002384359017,6.915489132097719e-05,-2.2833804450783646e-05,0.0,0.0,0.0,0.0,344.7270652173913,70.0,0.0,255.0,0.0
11.600000000000023,35.72557557147544,51.27597906620629,1370.0023837592453,6.915489132097719e-05,-2.2833804337096808e-05,0.0,0.0,1.1368683772161603e-12,0.0,344.7182608695652,70.0,0.0,255.0,0.0
11.650000000000023,35.72557903845364,51.275977933748536,1370.0023831594735,6.915489132097719e-05,-2.2833804337096808e-05,0.0,-5.684341886080801e-13,-1.1368683772161603e-12,0.0,344.7094565217391,70.0,0.0,255.0,0.0
11.700000000000024,35.725582505432996,51.27597680128902,1370.0023825569078,6.915489126413377e-05,-2.2833804450783646e-05,0.0,0.0,0.0,0.0,344.70065217391306,70.0,0.0,255.0,0.0
11.750000000000025,35.725585972413505,51.27597566882778,1370.0023819580674,6.915489132097719e-05,-2.2833804337096808e-05,0.0,5.684341886080801e-13,2.2737367544323206e-12,0.0,344.6918478260869,70.0,0.0,255.0,0.0
11.800000000000026,35.72558943939517,51.275974536364814,1370.002381356433,6.915489132097719e-05,-2.283380422340997e-05,0.0,-5.684341886080801e-13,0.0,0.0,344.68304347826086,70.0,0.0,255.0,0.0
11.850000000000026,35.725592906378,51.275973403900096,1370.0023807603866,6.915489126413377e-05,-2.2833804337096808e-05,0.0,0.0,-1.1368683772161603e-12,0.0,344.6742391304348,70.0,0.0,255.0,0.0
11.900000000000027,35.72559637336196,51.27597227143363,1370.0023801606148,6.915489132097719e-05,-2.2833804337096808e-05,0.0,5.684341886080801e-13,0.0,0.0,344.6654347826087,70.0,0.0,255.0,0.0
11.950000000000028,35.72559984034711,51.27597113896544,1370.002379560843,6.915489132097719e-05,-2.2833804337096808e-05,0.0,0.0,-1.1368683772161603e-12,0.0,344.6566304347826,70.0,0.0,255.0,0.0
12.000000000000028,35.725603307333394,51.2759700064955,1370.0023789620027,6.915489132097719e-05,-2.2833804450783646e-05,0.0,0.0,0.0,0.0,344.6478260869565,70.0,0.0,255.0,0.0
12.05000000000003,35.725606774320845,51.27596887402382,1370.002378359437,6.915489132097719e-05,-2.2833804337096808e-05,0.0,-5.684341886080801e-13,1.1368683772161603e-12,0.0,344.63902173913044,70.0,0.0,255.0,0.0
12.10000000000003,35.72561024130944,51.275967741550396,1370.0023777605966,6.915489126413377e-05,-2.2833804337096808e-05,0.0,0.0,0.0,0.0,344.63021739130437,70.0,0.0,255.0,0.0
12.15000000000003,35.7256137082992,51.27596660907523,1370.0023771608248,6.915489132097719e-05,-2.2833804337096808e-05,0.0,5.684341886080801e-13,0.0,0.0,344.62141304347824,70.0,0.0,255.0,0.0
12.200000000000031,35.725617175290104,51.27596547659832,1370.002376561053,6.915489132097719e-05,-2.2833804337096808e-05,0.0,-5.684341886080801e-13,0.0,0.0,344.61260869565217,70.0,0.0,255.0,0.0
12.250000000000032,35.72562064228216,51.27596434411968,1370.002375963144,6.915489126413377e-05,-2.2833804337096808e-05,0.0,0.0,0.0,0.0,344.6038043478261,70.0,0.0,255.0,0.0
12.300000000000033,35.72562410927538,51.27596321163929,1370.0023753633723,6.915489132097719e-05,-2.2833804337096808e-05,0.0,5.684341886080801e-13,0.0,0.0,344.59499999999997,70.0,0.0,255.0,0.0
12.350000000000033,35.72562757626976,51.27596207915715,1370.0023747626692,6.915489132097719e-05,-2.2833804337096808e-05,0.0,0.0,0.0,0.0,344.5861956521739,70.0,0.0,255.0,0.0
12.400000000000034,35.72563104326527,51.27596094667329,1370.00237416476,6.915489132097719e-05,-2.2833804337096808e-05,0.0,0.0,-1.1368683772161603e-12,0.0,344.5773913043478,70.0,0.0,255.0,0.0
12.450000000000035,35.725634510261955,51.275959814187665,1370.0023735649884,6.915489132097719e-05,-2.2833804450783646e-05,0.0,-5.684341886080801e-13,0.0,0.0,344.56858695652176,70.0,0.0,255.0,0.0
12.500000000000036,35.725637977259765,51.2759586817003,1370.0023729670793,6.915489126413377e-05,-2.2833804337096808e-05,0.0,0.0,1.1368683772161603e-12,0.0,344.5597826086956,70.0,0.0,255.0,0.0
12.550000000000036,35.72564144425876,51.2759575492112,1370.0023723673075,6.915489132097719e-05,-2.2833804337096808e-05,0.0,5.684341886080801e-13,0.0,0.0,344.55097826086956,70.0,0.0,255.0,0.0
12.600000000000037,35.72564491125889,51.27595641672036,1370.0023717675358,6.915489132097719e-05,-2.2833804337096808e-05,0.0,-5.684341886080801e-13,1.1368683772161603e-12,0.0,344.5421739130435,70.0,0.0,255.0,0.0
12.650000000000038,35.725648378260175,51.27595528422776,1370.0023711686954,6.915489126413377e-05,-2.283380422340997e-05,0.0,0.0,0.0,0.0,344.5333695652174,70.0,0.0,255.0,0.0
12.700000000000038,35.72565184526261,51.275954151733444,1370.0023705707863,6.915489132097719e-05,-2.2833804337096808e-05,0.0,5.684341886080801e-13,-2.2737367544323206e-12,0.0,344.5245652173913,70.0,0.0,255.0,0.0
12.750000000000039,35.725655312266205,51.27595301923735,1370.0023699700832,6.915489132097719e-05,-2.2833804450783646e-05,0.0,0.0,-1.1368683772161603e-12,0.0,344.5157608695652,70.0,0.0,255.0,0.0
12.80000000000004,35.72565877927096,51.275951886739534,1370.0023693731055,6.915489132097719e-05,-2.2833804450783646e-05,0.0,0.0,1.1368683772161603e-12,0.0,344.50695652173914,70.0,0.0,255.0,0.0
12.85000000000004,35.72566224627684,51.275950754239965,1370.002368774265,6.915489132097719e-05,-2.2833804337096808e-05,0.0,-1.1368683772161603e-12,1.1368683772161603e-12,0.0,344.498152173913,70.0,0.0,255.0,0.0
12.900000000000041,35.725665713283874,51.27594962173866,1370.002368173562,6.915489120729035e-05,-2.2833804337096808e-05,0.0,0.0,0.0,0.0,344.48934782608694,70.0,0.0,255.0,0.0
12.950000000000042,35.72566918029207,51.275948489235596,1370.0023675765842,6.915489132097719e-05,-2.2833804337096808e-05,0.0,1.1368683772161603e-12,1.1368683772161603e-12,0.0,344.48054347826087,70.0,0.0,255.0,0.0
13.000000000000043,35.72567264730143,51.27594735673079,1370.0023669749498,6.915489132097719e-05,-2.283380422340997e-05,0.0,-5.684341886080801e-13,0.0,0.0,344.4717391304348,70.0,0.0,255.0,0.0
13.050000000000043,35.72567611431191,51.275946224224256,1370.0023663770407,6.915489126413377e-05,-2.2833804337096808e-05,0.0,0.0,-2.2737367544323206e-12,0.0,344.46293478260867,70.0,0.0,255.0,0.0
13.100000000000044,35.72567958132356,51.275945091715954,1370.0023657782003,6.915489132097719e-05,-2.2833804450783646e-05,0.0,5.684341886080801e-13,0.0,0.0,344.4541304347826,70.0,0.0,255.0,0.0
13.150000000000045,35.72568304833637,51.27594395920592,1370.00236517936,6.915489132097719e-05,-2.2833804337096808e-05,0.0,-5.684341886080801e-13,1.1368683772161603e-12,0.0,344.4453260869565,70.0,0.0,255.0,0.0
13.200000000000045,35.72568651535031,51.275942826694134,1370.0023645823821,6.915489126413377e-05,-2.2833804337096808e-05,0.0,0.0,-1.1368683772161603e-12,0.0,344.43652173913046,70.0,0.0,255.0,0.0
13.250000000000046,35.7256899823654,51.2759416941806,1370.0023639835417,6.915489132097719e-05,-2.2833804450783646e-05,0.0,5.684341886080801e-13,0.0,0.0,344.4277173913043,70.0,0.0,255.0,0.0
13.300000000000047,35.72569344938165,51.27594056166534,1370.00236338377,6.915489132097719e-05,-2.2833804337096808e-05,0.0,0.0,2.2737367544323206e-12,0.0,344.41891304347826,70.0,0.0,255.0,0.0
13.350000000000048,35.72569691639903,51.27593942914831,1370.0023627877235,6.915489132097719e-05,-2.283380422340997e-05,0.0,0.0,0.0,0.0,344.4101086956522,70.0,0.0,255.0,0.0
13.400000000000048,35.725700383417596,51.27593829662954,1370.0023621870205,6.915489132097719e-05,-2.2833804337096808e-05,0.0,-5.684341886080801e-13,-1.1368683772161603e-12,0.0,344.40130434782606,70.0,0.0,255.0,0.0
13.450000000000049,35.72570385043727,51.27593716410902,1370.0023615900427,6.915489126413377e-05,-2.2833804337096808e-05,0.0,0.0,0.0,0.0,344.3925,70.0,0.0,255.0,0.0
13.50000000000005,35.725707317458124,51.27593603158675,1370.0023609921336,6.915489132097719e-05,-2.2833804337096808e-05,0.0,5.684341886080801e-13,-1.1368683772161603e-12,0.0,344.3836956521739,70.0,0.0,255.0,0.0
13.55000000000005,35.72571078448012,51.27593489906273,1370.0023603914306,6.915489132097719e-05,-2.2833804450783646e-05,0.0,-5.684341886080801e-13,0.0,0.0,344.37489130434784,70.0,0.0,255.0,0.0
13.600000000000051,35.725714251503256,51.27593376653697,1370.0023597944528,6.915489126413377e-05,-2.2833804337096808e-05,0.0,0.0,1.1368683772161603e-12,0.0,344.3660869565217,70.0,0.0,255.0,0.0
13.650000000000052,35.725717718527534,51.275932634009465,1370.0023591965437,6.915489132097719e-05,-2.2833804337096808e-05,0.0,5.684341886080801e-13,0.0,0.0,344.35728260869564,70.0,0.0,255.0,0.0
13.700000000000053,35.72572118555297,51.275931501480216,1370.0023585977033,6.915489132097719e-05,-2.2833804337096808e-05,0.0,0.0,0.0,0.0,344.34847826086957,70.0,0.0,255.0,0.0
13.750000000000053,35.72572465257954,51.275930368949204,1370.0023579997942,6.915489132097719e-05,-2.2833804337096808e-05,0.0,0.0,0.0,0.0,344.33967391304344,70.0,0.0,255.0,0.0
13.800000000000054,35.725728119607275,51.27592923641647,1370.0023574009538,6.915489132097719e-05,-2.2833804337096808e-05,0.0,-5.684341886080801e-13,0.0,0.0,344.33086956521737,70.0,0.0,255.0,0.0
13.850000000000055,35.72573158663614,51.27592810388197,1370.0023568058386,6.915489126413377e-05,-2.2833804337096808e-05,0.0,0.0,0.0,0.0,344.3220652173913,70.0,0.0,255.0,0.0
13.900000000000055,35.72573505366617,51.275926971345704,1370.0023562079296,6.915489132097719e-05,-2.2833804337096808e-05,0.0,5.684341886080801e-13,0.0,0.0,344.3132608695652,70.0,0.0,255.0,0.0
13.950000000000056,35.72573852069734,51.275925838807716,1370.0023556072265,6.915489132097719e-05,-2.2833804337096808e-05,0.0,-5.684341886080801e-13,-1.1368683772161603e-12,0.0,344.3044565217391,70.0,0.0,255.0,0.0
14.000000000000057,35.725741987729656,51.27592470626796,1370.0023550093174,6.915489126413377e-05,-2.2833804450783646e-05,0.0,0.0,0.0,0.0,344.295652173913,70.0,0.0,255.0,0.0
14.050000000000058,35.725745454763114,51.275923573726466,1370.0023544114083,6.915489132097719e-05,-2.2833804337096808e-05,0.0,5.684341886080801e-13,1.1368683772161603e-12,0.0,344.28684782608696,70.0,0.0,255.0,0.0
14.100000000000058,35.725748921797724,51.275922441183205,1370.0023538144305,6.915489132097719e-05,-2.2833804337096808e-05,0.0,0.0,0.0,0.0,344.2780434782609,70.0,0.0,255.0,0.0
14.150000000000059,35.72575238883348,51.27592130863821,1370.0023532165214,6.915489132097719e-05,-2.2833804337096808e-05,0.0,0.0,1.1368683772161603e-12,0.0,344.26923913043476,70.0,0.0,255.0,0.0
14.20000000000006,35.72575585587037,51.27592017609146,1370.0023526186123,6.915489132097719e-05,-2.283380422340997e-05,0.0,-5.684341886080801e-13,0.0,0.0,344.2604347826087,70.0,0.0,255.0,0.0
14.25000000000006,35.72575932290841,51.27591904354296,1370.0023520216346,6.915489126413377e-05,-2.2833804337096808e-05,0.0,0.0,-2.2737367544323206e-12,0.0,344.2516304347826,70.0,0.0,255.0,0.0
14.300000000000061,35.7257627899476,51.2759179109927,1370.0023514246568,6.915489132097719e-05,-2.2833804450783646e-05,0.0,0.0,0.0,0.0,344.2428260869565,70.0,0.0,255.0,0.0
14.350000000000062,35.725766256987946,51.27591677844071,1370.0023508267477,6.915489126413377e-05,-2.2833804337096808e-05,0.0,-5.684341886080801e-13,1.1368683772161603e-12,0.0,344.2340217391304,70.0,0.0,255.0,0.0
14.400000000000063,35.72576972402941,51.275915645886954,1370.0023502279073,6.915489126413377e-05,-2.2833804337096808e-05,0.0,5.684341886080801e-13,-1.1368683772161603e-12,0.0,344.22521739130434,70.0,0.0,255.0,0.0
14.450000000000063,35.72577319107204,51.27591451333145,1370.0023496318609,6.915489132097719e-05,-2.2833804450783646e-05,0.0,5.684341886080801e-13,0.0,0.0,344.21641304347827,70.0,0.0,255.0,0.0
14.500000000000064,35.7257766581158,51.275913380774185,1370.0023490339518,6.915489132097719e-05,-2.2833804337096808e-05,0.0,-5.684341886080801e-13,2.2737367544323206e-12,0.0,344.20760869565214,70.0,0.0,255.0,0.0
14.550000000000065,35.72578012516071,51.27591224821519,1370.0023484360427,6.915489126413377e-05,-2.283380422340997e-05,0.0,0.0,0.0,0.0,344.19880434782607,70.0,0.0,255.0,0.0
14.600000000000065,35.72578359220676,51.27591111565442,1370.002347839065,6.915489132097719e-05,-2.2833804337096808e-05,0.0,5.684341886080801e-13,-2.2737367544323206e-12,0.0,344.19,70.0,0.0,255.0,0.0
14.650000000000066,35.72578705925396,51.27590998309191,1370.0023472420871,6.915489132097719e-05,-2.2833804450783646e-05,0.0,0.0,0.0,0.0,344.1811956521739,70.0,0.0,255.0,0.0
14.700000000000067,35.7257905263023,51.27590885052764,1370.0023466451094,6.915489132097719e-05,-2.2833804337096808e-05,0.0,0.0,1.1368683772161603e-12,0.0,344.1723913043478,70.0,0.0,255.0,0.0
14.750000000000068,35.72579399335179,51.27590771796163,1370.0023460472003,6.915489132097719e-05,-2.2833804337096808e-05,0.0,-5.684341886080801e-13,-1.1368683772161603e-12,0.0,344.1635869565217,70.0,0.0,255.0,0.0
14.800000000000068,35.725797460402404,51.275906585393855,1370.0023454511538,6.915489126413377e-05,-2.2833804450783646e-05,0.0,0.0,0.0,0.0,344.15478260869565,70.0,0.0,255.0,0.0
14.850000000000069,35.72580092745418,51.275905452824325,1370.0023448523134,6.915489132097719e-05,-2.2833804337096808e-05,0.0,5.684341886080801e-13,2.2737367544323206e-12,0.0,344.1459782608695,70.0,0.0,255.0,0.0
14.90000000000007,35.725804394507094,51.275904320253055,1370.002344256267,6.915489132097719e-05,-2.283380422340997e-05,0.0,-5.684341886080801e-13,0.0,0.0,344.13717391304345,70.0,0.0,255.0,0.0
14.95000000000007,35.72580786156116,51.27590318768003,1370.0023436583579,6.915489126413377e-05,-2.2833804337096808e-05,0.0,0.0,-1.1368683772161603e-12,0.0,344.1283695652174,70.0,0.0,255.0,0.0
15.000000000000071,35.72581132861633,51.27590205510524,1370.0023430623114,6.915489132097719e-05,-2.2833804337096808e-05,0.0,5.684341886080801e-13,0.0,0.0,344.1195652173913,70.0,0.0,255.0,0.0
15.050000000000072,35.725814795672676,51.2759009225287,1370.0023424644023,6.915489132097719e-05,-2.2833804337096808e-05,0.0,0.0,-1.1368683772161603e-12,0.0,344.1107608695652,70.0,0.0,255.0,0.0
15.100000000000072,35.72581826273015,51.275899789950415,1370.0023418683559,6.915489132097719e-05,-2.2833804450783646e-05,0.0,0.0,0.0,0.0,344.1019565217391,70.0,0.0,255.0,0.0
15.150000000000073,35.725821729788784,51.275898657370355,1370.002341271378,6.915489132097719e-05,-2.2833804337096808e-05,0.0,-5.684341886080801e-13,1.1368683772161603e-12,0.0,344.09315217391304,70.0,0.0,255.0,0.0
15.200000000000074,35.72582519684854,51.27589752478857,1370.002340673469,6.915489126413377e-05,-2.2833804337096808e-05,0.0,0.0,0.0,0.0,344.08434782608697,70.0,0.0,255.0,0.0
15.250000000000075,35.725828663909454,51.275896392205006,1370.00234007556,6.915489132097719e-05,-2.2833804337096808e-05,0.0,5.684341886080801e-13,0.0,0.0,344.07554347826084,70.0,0.0,255.0,0.0
15.300000000000075,35.72583213097149,51.27589525961969,1370.002339481376,6.915489132097719e-05,-2.2833804337096808e-05,0.0,-5.684341886080801e-13,0.0,0.0,344.06673913043477,70.0,0.0,255.0,0.0
15.350000000000076,35.72583559803467,51.27589412703262,1370.0023388853297,6.915489126413377e-05,-2.2833804337096808e-05,0.0,0.0,0.0,0.0,344.0579347826087,70.0,0.0,255.0,0.0
15.400000000000077,35.72583906509899,51.2758929944438,1370.0023382874206,6.915489132097719e-05,-2.2833804337096808e-05,0.0,5.684341886080801e-13,0.0,0.0,344.04913043478257,70.0,0.0,255.0,0.0
15.450000000000077,35.72584253216447,51.27589186185322,1370.0023376904428,6.915489132097719e-05,-2.2833804337096808e-05,0.0,0.0,0.0,0.0,344.0403260869565,70.0,0.0,255.0,0.0
15.500000000000078,35.72584599923106,51.27589072926089,1370.002337093465,6.915489132097719e-05,-2.2833804337096808e-05,0.0,0.0,-1.1368683772161603e-12,0.0,344.0315217391304,70.0,0.0,255.0,0.0
15.550000000000079,35.7258494662988,51.275889596666794,1370.0023364974186,6.915489132097719e-05,-2.2833804450783646e-05,0.0,-5.684341886080801e-13,0.0,0.0,344.02271739130435,70.0,0.0,255.0,0.0
15.60000000000008,35.725852933367676,51.275888464070945,1370.0023359013721,6.915489126413377e-05,-2.2833804337096808e-05,0.0,0.0,1.1368683772161603e-12,0.0,344.0139130434782,70.0,0.0,255.0,0.0
15.65000000000008,35.72585640043771,51.27588733147335,1370.0023353043944,6.915489132097719e-05,-2.2833804337096808e-05,0.0,5.684341886080801e-13,0.0,0.0,344.00510869565215,70.0,0.0,255.0,0.0
15.700000000000081,35.725859867508866,51.275886198873984,1370.0023347064853,6.915489132097719e-05,-2.2833804337096808e-05,0.0,-5.684341886080801e-13,1.1368683772161603e-12,0.0,343.9963043478261,70.0,0.0,255.0,0.0
15.750000000000082,35.72586333458116,51.27588506627286,1370.0023341113701,6.915489126413377e-05,-2.283380422340997e-05,0.0,-5.684341886080801e-13,0.0,0.0,343.9875,70.0,0.0,255.0,0.0
15.800000000000082,35.725866801654604,51.275883933669995,1370.002333513461,6.915489126413377e-05,-2.2833804337096808e-05,0.0,5.684341886080801e-13,-2.2737367544323206e-12,0.0,343.9786956521739,70.0,0.0,255.0,0.0
15.850000000000083,35.72587026872917,51.27588280106536,1370.0023329192773,6.915489132097719e-05,-2.2833804450783646e-05,0.0,0.0,0.0,0.0,343.9698913043478,70.0,0.0,255.0,0.0
15.900000000000084,35.72587373580488,51.275881668458965,1370.0023323232308,6.915489126413377e-05,-2.2833804337096808e-05,0.0,0.0,1.1368683772161603e-12,0.0,343.96108695652174,70.0,0.0,255.0,0.0
15.950000000000085,35.725877202881726,51.275880535850824,1370.0023317271844,6.915489132097719e-05,-2.2833804337096808e-05,0.0,5.684341886080801e-13,-1.1368683772161603e-12,0.0,343.9522826086956,70.0,0.0,255.0,0.0
16.000000000000085,35.72588066995973,51.27587940324092,1370.002331131138,6.915489132097719e-05,-2.2833804450783646e-05,0.0,0.0,0.0,0.0,343.94347826086954,70.0,0.0,255.0,0.0
16.050000000000086,35.72588413703885,51.27587827062925,1370.0023305350915,6.915489132097719e-05,-2.2833804337096808e-05,0.0,0.0,2.2737367544323206e-12,0.0,343.93467391304347,70.0,0.0,255.0,0.0
16.100000000000087,35.72588760411912,51.27587713801584,1370.0023299371824,6.915489132097719e-05,-2.283380422340997e-05,0.0,-5.684341886080801e-13,0.0,0.0,343.9258695652174,70.0,0.0,255.0,0.0
16.150000000000087,35.725891071200515,51.27587600540065,1370.0023293429986,6.915489126413377e-05,-2.2833804337096808e-05,0.0,0.0,-1.1368683772161603e-12,0.0,343.91706521739127,70.0,0.0,255.0,0.0
16.200000000000088,35.72589453828306,51.27587487278371,1370.0023287469521,6.915489132097719e-05,-2.2833804337096808e-05,0.0,5.684341886080801e-13,0.0,0.0,343.9082608695652,70.0,0.0,255.0,0.0
16.25000000000009,35.72589800536672,51.27587374016502,1370.0023281509057,6.915489132097719e-05,-2.2833804337096808e-05,0.0,-5.684341886080801e-13,-1.1368683772161603e-12,0.0,343.8994565217391,70.0,0.0,255.0,0.0
16.30000000000009,35.72590147245154,51.27587260754455,1370.0023275548592,6.915489126413377e-05,-2.2833804450783646e-05,0.0,0.0,0.0,0.0,343.89065217391305,70.0,0.0,255.0,0.0
16.35000000000009,35.72590493953748,51.27587147492233,1370.0023269588128,6.915489132097719e-05,-2.2833804337096808e-05,0.0,5.684341886080801e-13,1.1368683772161603e-12,0.0,343.8818478260869,70.0,0.0,255.0,0.0
16.40000000000009,35.725908406624555,51.27587034229836,1370.002326364629,6.915489132097719e-05,-2.2833804337096808e-05,0.0,0.0,0.0,0.0,343.87304347826085,70.0,0.0,255.0,0.0
16.45000000000009,35.725911873712775,51.275869209672614,1370.0023257685825,6.915489132097719e-05,-2.2833804337096808e-05,0.0,0.0,0.0,0.0,343.8642391304348,70.0,0.0,255.0,0.0
16.500000000000092,35.72591534080213,51.27586807704512,1370.002325172536,6.915489132097719e-05,-2.2833804337096808e-05,0.0,-5.684341886080801e-13,0.0,0.0,343.85543478260865,70.0,0.0,255.0,0.0
16.550000000000093,35.725918807892626,51.27586694441586,1370.0023245755583,6.915489126413377e-05,-2.2833804337096808e-05,0.0,0.0,0.0,0.0,343.8466304347826,70.0,0.0,255.0,0.0
16.600000000000094,35.72592227498425,51.27586581178484,1370.0023239795119,6.915489132097719e-05,-2.2833804337096808e-05,0.0,5.684341886080801e-13,-1.1368683772161603e-12,0.0,343.8378260869565,70.0,0.0,255.0,0.0
16.650000000000095,35.725925742077,51.275864679152065,1370.0023233843967,6.915489132097719e-05,-2.2833804450783646e-05,0.0,-5.684341886080801e-13,0.0,0.0,343.82902173913044,70.0,0.0,255.0,0.0
16.700000000000095,35.7259292091709,51.27586354651751,1370.0023227911443,6.915489126413377e-05,-2.2833804337096808e-05,0.0,0.0,1.1368683772161603e-12,0.0,343.8202173913043,70.0,0.0,255.0,0.0
16.750000000000096,35.72593267626591,51.27586241388122,1370.0023221932352,6.915489132097719e-05,-2.2833804337096808e-05,0.0,5.684341886080801e-13,0.0,0.0,343.81141304347824,70.0,0.0,255.0,0.0
16.800000000000097,35.725936143362084,51.27586128124315,1370.00232159812,6.915489132097719e-05,-2.2833804337096808e-05,0.0,0.0,0.0,0.0,343.80260869565217,70.0,0.0,255.0,0.0
16.850000000000097,35.72593961045937,51.27586014860332,1370.0023210057989,6.915489132097719e-05,-2.2833804337096808e-05,0.0,0.0,0.0,0.0,343.7938043478261,70.0,0.0,255.0,0.0
16.900000000000098,35.7259430775578,51.275859015961736,1370.0023204078898,6.915489132097719e-05,-2.2833804337096808e-05,0.0,-5.684341886080801e-13,0.0,0.0,343.78499999999997,70.0,0.0,255.0,0.0
16.9500000000001,35.72594654465736,51.27585788331839,1370.0023198118433,6.915489126413377e-05,-2.2833804337096808e-05,0.0,0.0,0.0,0.0,343.7761956521739,70.0,0.0,255.0,0.0
17.0000000000001,35.725950011758066,51.27585675067327,1370.0023192176595,6.915489132097719e-05,-2.2833804337096808e-05,0.0,5.684341886080801e-13,0.0,0.0,343.7673913043478,70.0,0.0,255.0,0.0
17.0500000000001,35.725953478859886,51.275855618026405,1370.0023186225444,6.915489132097719e-05,-2.2833804337096808e-05,0.0,-5.684341886080801e-13,-1.1368683772161603e-12,0.0,343.7585869565217,70.0,0.0,255.0,0.0
17.1000000000001,35.72595694596284,51.27585448537776,1370.0023180274293,6.915489126413377e-05,-2.2833804450783646e-05,0.0,-5.684341886080801e-13,0.0,0.0,343.7497826086956,70.0,0.0,255.0,0.0
17.1500000000001,35.72596041306693,51.27585335272735,1370.0023174313828,6.915489126413377e-05,-2.2833804337096808e-05,0.0,5.684341886080801e-13,1.1368683772161603e-12,0.0,343.74097826086955,70.0,0.0,255.0,0.0
17.200000000000102,35.725963880172145,51.2758522200752,1370.002316837199,6.915489132097719e-05,-2.2833804337096808e-05,0.0,0.0,0.0,0.0,343.7321739130435,70.0,0.0,255.0,0.0
17.250000000000103,35.725967347278505,51.27585108742127,1370.002316242084,6.915489126413377e-05,-2.2833804337096808e-05,0.0,0.0,1.1368683772161603e-12,0.0,343.72336956521735,70.0,0.0,255.0,0.0
17.300000000000104,35.72597081438599,51.27584995476557,1370.0023156479,6.915489132097719e-05,-2.283380422340997e-05,0.0,5.684341886080801e-13,0.0,0.0,343.7145652173913,70.0,0.0,255.0,0.0
17.350000000000104,35.72597428149461,51.27584882210812,1370.0023150518537,6.915489132097719e-05,-2.2833804337096808e-05,0.0,0.0,-2.2737367544323206e-12,0.0,343.7057608695652,70.0,0.0,255.0,0.0
17.400000000000105,35.725977748604365,51.275847689448895,1370.0023144567385,6.915489132097719e-05,-2.2833804450783646e-05,0.0,0.0,0.0,0.0,343.69695652173914,70.0,0.0,255.0,0.0
17.450000000000106,35.72598121571526,51.27584655678792,1370.0023138616234,6.915489132097719e-05,-2.2833804337096808e-05,0.0,-5.684341886080801e-13,1.1368683772161603e-12,0.0,343.688152173913,70.0,0.0,255.0,0.0
17.500000000000107,35.72598468282726,51.27584542412518,1370.0023132674396,6.915489126413377e-05,-2.2833804337096808e-05,0.0,0.0,-1.1368683772161603e-12,0.0,343.67934782608694,70.0,0.0,255.0,0.0
17.550000000000107,35.72598814994041,51.27584429146066,1370.0023126723245,6.915489132097719e-05,-2.2833804450783646e-05,0.0,5.684341886080801e-13,0.0,0.0,343.67054347826087,70.0,0.0,255.0,0.0
17.600000000000108,35.72599161705468,51.27584315879439,1370.0023120781407,6.915489132097719e-05,-2.2833804337096808e-05,0.0,-5.684341886080801e-13,2.2737367544323206e-12,0.0,343.66173913043474,70.0,0.0,255.0,0.0
17.65000000000011,35.72599508417009,51.27584202612634,1370.0023114848882,6.915489126413377e-05,-2.283380422340997e-05,0.0,0.0,0.0,0.0,343.65293478260867,70.0,0.0,255.0,0.0
17.70000000000011,35.725998551286615,51.275840893456525,1370.0023108888417,6.915489132097719e-05,-2.2833804337096808e-05,0.0,5.684341886080801e-13,-1.1368683772161603e-12,0.0,343.6441304347826,70.0,0.0,255.0,0.0
17.75000000000011,35.72600201840429,51.275839760784955,1370.0023102955893,6.915489132097719e-05,-2.2833804337096808e-05,0.0,0.0,0.0,0.0,343.6353260869565,70.0,0.0,255.0,0.0
17.80000000000011,35.72600548552308,51.27583862811162,1370.0023097004741,6.915489132097719e-05,-2.2833804337096808e-05,0.0,0.0,-1.1368683772161603e-12,0.0,343.6265217391304,70.0,0.0,255.0,0.0
17.85000000000011,35.72600895264301,51.27583749543651,1370.002309105359,6.915489132097719e-05,-2.2833804450783646e-05,0.0,-5.684341886080801e-13,0.0,0.0,343.6177173913043,70.0,0.0,255.0,0.0
17.900000000000112,35.726012419764054,51.275836362759634,1370.0023085121065,6.915489126413377e-05,-2.2833804337096808e-05,0.0,0.0,1.1368683772161603e-12,0.0,343.60891304347825,70.0,0.0,255.0,0.0
17.950000000000113,35.726015886886245,51.27583523008101,1370.0023079169914,6.915489132097719e-05,-2.2833804337096808e-05,0.0,5.684341886080801e-13,0.0,0.0,343.6001086956522,70.0,0.0,255.0,0.0
18.000000000000114,35.72601935400955,51.2758340974006,1370.0023073228076,6.915489132097719e-05,-2.2833804337096808e-05,0.0,-5.684341886080801e-13,0.0,0.0,343.59130434782605,70.0,0.0,255.0,0.0
18.050000000000114,35.726022821133995,51.27583296471841,1370.0023067286238,6.915489126413377e-05,-2.2833804337096808e-05,0.0,0.0,0.0,0.0,343.5825,70.0,0.0,255.0,0.0
18.100000000000115,35.726026288259554,51.27583183203449,1370.00230613444,6.915489132097719e-05,-2.2833804337096808e-05,0.0,5.684341886080801e-13,0.0,0.0,343.5736956521739,70.0,0.0,255.0,0.0
18.150000000000116,35.72602975538624,51.275830699348774,1370.0023055383936,6.915489132097719e-05,-2.2833804337096808e-05,0.0,0.0,0.0,0.0,343.5648913043478,70.0,0.0,255.0,0.0
18.200000000000117,35.72603322251407,51.2758295666613,1370.0023049470037,6.915489132097719e-05,-2.2833804337096808e-05,0.0,0.0,0.0,0.0,343.5560869565217,70.0,0.0,255.0,0.0
18.250000000000117,35.72603668964303,51.275828433972066,1370.002304350026,6.915489132097719e-05,-2.2833804337096808e-05,0.0,-5.684341886080801e-13,-1.1368683772161603e-12,0.0,343.54728260869564,70.0,0.0,255.0,0.0
18.300000000000118,35.7260401567731,51.275827301281055,1370.0023037577048,6.915489126413377e-05,-2.2833804450783646e-05,0.0,0.0,0.0,0.0,343.53847826086957,70.0,0.0,255.0,0.0
18.35000000000012,35.7260436239043,51.275826168588274,1370.002303163521,6.915489132097719e-05,-2.2833804337096808e-05,0.0,5.684341886080801e-13,1.1368683772161603e-12,0.0,343.52967391304344,70.0,0.0,255.0,0.0
18.40000000000012,35.726047091036634,51.27582503589373,1370.0023025702685,6.915489132097719e-05,-2.2833804337096808e-05,0.0,-5.684341886080801e-13,0.0,0.0,343.52086956521737,70.0,0.0,255.0,0.0
18.45000000000012,35.726050558170094,51.27582390319741,1370.002301977016,6.915489126413377e-05,-2.2833804337096808e-05,0.0,0.0,0.0,0.0,343.5120652173913,70.0,0.0,255.0,0.0
18.50000000000012,35.72605402530469,51.27582277049933,1370.0023013828322,6.915489132097719e-05,-2.2833804337096808e-05,0.0,5.684341886080801e-13,0.0,0.0,343.5032608695652,70.0,0.0,255.0,0.0
18.55000000000012,35.7260574924404,51.275821637799474,1370.0023007886484,6.915489132097719e-05,-2.2833804337096808e-05,0.0,-1.1368683772161603e-12,0.0,0.0,343.4944565217391,70.0,0.0,255.0,0.0
18.600000000000122,35.72606095957725,51.27582050509786,1370.002300195396,6.915489120729035e-05,-2.2833804337096808e-05,0.0,0.0,-1.1368683772161603e-12,0.0,343.485652173913,70.0,0.0,255.0,0.0
18.650000000000123,35.72606442671519,51.27581937239446,1370.0022996002808,6.915489132097719e-05,-2.2833804450783646e-05,0.0,1.1368683772161603e-12,0.0,0.0,343.47684782608695,70.0,0.0,255.0,0.0
18.700000000000124,35.726067893854285,51.2758182396893,1370.002299006097,6.915489132097719e-05,-2.2833804337096808e-05,0.0,0.0,1.1368683772161603e-12,0.0,343.4680434782608,70.0,0.0,255.0,0.0
18.750000000000124,35.726071360994496,51.27581710698238,1370.0022984137759,6.915489132097719e-05,-2.2833804337096808e-05,0.0,0.0,0.0,0.0,343.45923913043475,70.0,0.0,255.0,0.0
18.800000000000125,35.726074828135836,51.27581597427368,1370.0022978214547,6.915489132097719e-05,-2.2833804337096808e-05,0.0,-5.684341886080801e-13,1.1368683772161603e-12,0.0,343.4504347826087,70.0,0.0,255.0,0.0
18.850000000000126,35.7260782952783,51.275814841563204,1370.002297227271,6.915489126413377e-05,-2.283380422340997e-05,0.0,0.0,0.0,0.0,343.4416304347826,70.0,0.0,255.0,0.0
18.900000000000126,35.726081762421906,51.27581370885097,1370.0022966340184,6.915489132097719e-05,-2.2833804337096808e-05,0.0,5.684341886080801e-13,-2.2737367544323206e-12,0.0,343.4328260869565,70.0,0.0,255.0,0.0
18.950000000000127,35.726085229566614,51.27581257613696,1370.002296040766,6.915489132097719e-05,-2.2833804450783646e-05,0.0,-5.684341886080801e-13,0.0,0.0,343.4240217391304,70.0,0.0,255.0,0.0
19.000000000000128,35.72608869671245,51.27581144342117,1370.0022954456508,6.915489126413377e-05,-2.2833804337096808e-05,0.0,0.0,1.1368683772161603e-12,0.0,343.41521739130434,70.0,0.0,255.0,0.0
19.05000000000013,35.7260921638594,51.275810310703626,1370.0022948533297,6.915489132097719e-05,-2.2833804337096808e-05,0.0,5.684341886080801e-13,-1.1368683772161603e-12,0.0,343.40641304347827,70.0,0.0,255.0,0.0
19.10000000000013,35.72609563100749,51.275809177984286,1370.0022942591459,6.915489132097719e-05,-2.2833804450783646e-05,0.0,0.0,0.0,0.0,343.39760869565214,70.0,0.0,255.0,0.0
19.15000000000013,35.7260990981567,51.27580804526319,1370.002293667756,6.915489132097719e-05,-2.2833804337096808e-05,0.0,0.0,2.2737367544323206e-12,0.0,343.38880434782607,70.0,0.0,255.0,0.0
19.20000000000013,35.72610256530704,51.275806912540325,1370.0022930745035,6.915489132097719e-05,-2.283380422340997e-05,0.0,-5.684341886080801e-13,0.0,0.0,343.38,70.0,0.0,255.0,0.0
19.25000000000013,35.72610603245849,51.275805779815684,1370.0022924803197,6.915489126413377e-05,-2.2833804337096808e-05,0.0,0.0,-1.1368683772161603e-12,0.0,343.37119565217387,70.0,0.0,255.0,0.0
19.300000000000132,35.72610949961107,51.275804647089274,1370.0022918870673,6.915489132097719e-05,-2.2833804337096808e-05,0.0,5.684341886080801e-13,0.0,0.0,343.3623913043478,70.0,0.0,255.0,0.0
19.350000000000133,35.726112966764774,51.27580351436109,1370.0022912938148,6.915489132097719e-05,-2.2833804337096808e-05,0.0,-5.684341886080801e-13,-1.1368683772161603e-12,0.0,343.3535869565217,70.0,0.0,255.0,0.0
19.400000000000134,35.72611643391961,51.275802381631124,1370.0022907014936,6.915489126413377e-05,-2.2833804450783646e-05,0.0,0.0,0.0,0.0,343.34478260869565,70.0,0.0,255.0,0.0
19.450000000000134,35.72611990107554,51.2758012488994,1370.0022901082411,6.915489132097719e-05,-2.2833804337096808e-05,0.0,5.684341886080801e-13,1.1368683772161603e-12,0.0,343.3359782608695,70.0,0.0,255.0,0.0
19.500000000000135,35.72612336823262,51.2758001161659,1370.0022895149887,6.915489132097719e-05,-2.2833804337096808e-05,0.0,0.0,0.0,0.0,343.32717391304345,70.0,0.0,255.0,0.0
19.550000000000136,35.7261268353908,51.27579898343062,1370.0022889245301,6.915489132097719e-05,-2.2833804337096808e-05,0.0,0.0,0.0,0.0,343.3183695652174,70.0,0.0,255.0,0.0
19.600000000000136,35.72613030255013,51.27579785069357,1370.002288329415,6.915489132097719e-05,-2.2833804337096808e-05,0.0,-5.684341886080801e-13,0.0,0.0,343.3095652173913,70.0,0.0,255.0,0.0
19.650000000000137,35.72613376971055,51.27579671795476,1370.0022877370939,6.915489126413377e-05,-2.2833804337096808e-05,0.0,0.0,0.0,0.0,343.3007608695652,70.0,0.0,255.0,0.0
19.700000000000138,35.726137236872106,51.27579558521415,1370.0022871447727,6.915489132097719e-05,-2.2833804337096808e-05,0.0,5.684341886080801e-13,0.0,0.0,343.2919565217391,70.0,0.0,255.0,0.0
19.75000000000014,35.72614070403478,51.27579445247178,1370.002286550589,6.915489132097719e-05,-2.2833804337096808e-05,0.0,-5.684341886080801e-13,0.0,0.0,343.28315217391304,70.0,0.0,255.0,0.0
19.80000000000014,35.726144171198584,51.27579331972763,1370.0022859582677,6.915489126413377e-05,-2.2833804337096808e-05,0.0,0.0,-1.1368683772161603e-12,0.0,343.2743478260869,70.0,0.0,255.0,0.0
19.85000000000014,35.72614763836349,51.27579218698172,1370.002285366878,6.915489132097719e-05,-2.2833804450783646e-05,0.0,5.684341886080801e-13,0.0,0.0,343.26554347826084,70.0,0.0,255.0,0.0
19.90000000000014,35.72615110552953,51.27579105423402,1370.0022847736254,6.915489132097719e-05,-2.2833804337096808e-05,0.0,0.0,1.1368683772161603e-12,0.0,343.25673913043477,70.0,0.0,255.0,0.0
19.95000000000014,35.72615457269669,51.27578992148455,1370.0022841822356,6.915489132097719e-05,-2.2833804337096808e-05,0.0,0.0,0.0,0.0,343.2479347826087,70.0,0.0,255.0,0.0
20.000000000000142,35.72615803986498,51.2757887887333,1370.0022835889831,6.915489132097719e-05,-2.2833804337096808e-05,0.0,-1.1368683772161603e-12,1.1368683772161603e-12,0.0,343.23913043478257,70.0,0.0,255.0,0.0
20.050000000000143,35.72616150703438,51.275787655980274,1370.0022829975933,6.915489120729035e-05,-2.283380422340997e-05,0.0,0.0,0.0,0.0,343.2303260869565,70.0,0.0,255.0,0.0
20.100000000000144,35.72616497420488,51.27578652322549,1370.0022824043408,6.915489132097719e-05,-2.2833804337096808e-05,0.0,1.1368683772161603e-12,-2.2737367544323206e-12,0.0,343.2215217391304,70.0,0.0,255.0,0.0
20.150000000000144,35.726168441376515,51.27578539046892,1370.0022818120196,6.915489132097719e-05,-2.2833804450783646e-05,0.0,-5.684341886080801e-13,0.0,0.0,343.2127173913043,70.0,0.0,255.0,0.0
20.200000000000145,35.72617190854927,51.27578425771056,1370.0022812196985,6.915489126413377e-05,-2.2833804337096808e-05,0.0,0.0,1.1368683772161603e-12,0.0,343.2039130434782,70.0,0.0,255.0,0.0
20.250000000000146,35.72617537572315,51.27578312495044,1370.0022806283087,6.915489132097719e-05,-2.2833804337096808e-05,0.0,5.684341886080801e-13,-1.1368683772161603e-12,0.0,343.19510869565215,70.0,0.0,255.0,0.0
20.300000000000146,35.726178842898136,51.27578199218854,1370.0022800350562,6.915489132097719e-05,-2.2833804450783646e-05,0.0,-5.684341886080801e-13,0.0,0.0,343.1863043478261,70.0,0.0,255.0,0.0
20.350000000000147,35.72618231007426,51.27578085942486,1370.0022794436663,6.915489126413377e-05,-2.2833804337096808e-05,0.0,0.0,2.2737367544323206e-12,0.0,343.17749999999995,70.0,0.0,255.0,0.0
20.400000000000148,35.726185777251466,51.275779726659415,1370.0022788513452,6.915489132097719e-05,-2.283380422340997e-05,0.0,5.684341886080801e-13,0.0,0.0,343.1686956521739,70.0,0.0,255.0,0.0
20.45000000000015,35.726189244429825,51.27577859389218,1370.0022782580927,6.915489132097719e-05,-2.2833804337096808e-05,0.0,0.0,-2.2737367544323206e-12,0.0,343.1598913043478,70.0,0.0,255.0,0.0
20.50000000000015,35.72619271160929,51.27577746112318,1370.0022776667029,6.915489132097719e-05,-2.2833804450783646e-05,0.0,0.0,0.0,0.0,343.15108695652174,70.0,0.0,255.0,0.0
20.55000000000015,35.72619617878988,51.27577632835238,1370.0022770762444,6.915489132097719e-05,-2.2833804337096808e-05,0.0,-5.684341886080801e-13,1.1368683772161603e-12,0.0,343.1422826086956,70.0,0.0,255.0,0.0
20.60000000000015,35.72619964597156,51.275775195579826,1370.0022764829919,6.915489126413377e-05,-2.2833804337096808e-05,0.0,0.0,-1.1368683772161603e-12,0.0,343.13347826086954,70.0,0.0,255.0,0.0
20.65000000000015,35.726203113154384,51.27577406280548,1370.002275891602,6.915489132097719e-05,-2.2833804450783646e-05,0.0,5.684341886080801e-13,0.0,0.0,343.12467391304347,70.0,0.0,255.0,0.0
20.700000000000152,35.726206580338314,51.27577293002936,1370.0022753002122,6.915489132097719e-05,-2.2833804337096808e-05,0.0,-5.684341886080801e-13,2.2737367544323206e-12,0.0,343.11586956521734,70.0,0.0,255.0,0.0
20.750000000000153,35.72621004752337,51.275771797251466,1370.002274707891,6.915489126413377e-05,-2.283380422340997e-05,0.0,0.0,0.0,0.0,343.10706521739127,70.0,0.0,255.0,0.0
20.800000000000153,35.72621351470953,51.27577066447179,1370.0022741165012,6.915489132097719e-05,-2.2833804337096808e-05,0.0,5.684341886080801e-13,-1.1368683772161603e-12,0.0,343.0982608695652,70.0,0.0,255.0,0.0
20.850000000000154,35.726216981896805,51.27576953169034,1370.0022735260427,6.915489132097719e-05,-2.2833804337096808e-05,0.0,0.0,0.0,0.0,343.0894565217391,70.0,0.0,255.0,0.0
20.900000000000155,35.7262204490852,51.275768398907104,1370.0022729337215,6.915489132097719e-05,-2.2833804337096808e-05,0.0,0.0,-1.1368683772161603e-12,0.0,343.080652173913,70.0,0.0,255.0,0.0
20.950000000000156,35.72622391627472,51.275767266122095,1370.0022723423317,6.915489132097719e-05,-2.2833804450783646e-05,0.0,-5.684341886080801e-13,0.0,0.0,343.0718478260869,70.0,0.0,255.0,0.0
21.000000000000156,35.72622738346534,51.2757661333353,1370.0022717509419,6.915489126413377e-05,-2.2833804337096808e-05,0.0,0.0,1.1368683772161603e-12,0.0,343.06304347826085,70.0,0.0,255.0,0.0
21.050000000000157,35.72623085065709,51.27576500054673,1370.002271159552,6.915489132097719e-05,-2.2833804337096808e-05,0.0,5.684341886080801e-13,0.0,0.0,343.0542391304348,70.0,0.0,255.0,0.0
21.100000000000158,35.72623431784994,51.275763867756375,1370.0022705681622,6.915489132097719e-05,-2.2833804337096808e-05,0.0,-5.684341886080801e-13,0.0,0.0,343.04543478260865,70.0,0.0,255.0,0.0
21.15000000000016,35.72623778504392,51.275762734964246,1370.0022699795663,6.915489126413377e-05,-2.2833804337096808e-05,0.0,0.0,0.0,0.0,343.0366304347826,70.0,0.0,255.0,0.0
21.20000000000016,35.726241252239014,51.275761602170334,1370.0022693853825,6.915489132097719e-05,-2.2833804337096808e-05,0.0,5.684341886080801e-13,0.0,0.0,343.0278260869565,70.0,0.0,255.0,0.0
21.25000000000016,35.7262447194352,51.275760469374646,1370.0022687958553,6.915489132097719e-05,-2.2833804337096808e-05,0.0,0.0,0.0,0.0,343.0190217391304,70.0,0.0,255.0,0.0
21.30000000000016,35.726248186632525,51.27575933657717,1370.0022682026029,6.915489132097719e-05,-2.2833804337096808e-05,0.0,0.0,0.0,0.0,343.0102173913043,70.0,0.0,255.0,0.0
21.35000000000016,35.72625165383095,51.27575820377792,1370.002267611213,6.915489132097719e-05,-2.2833804337096808e-05,0.0,-5.684341886080801e-13,-1.1368683772161603e-12,0.0,343.00141304347824,70.0,0.0,255.0,0.0
21.400000000000162,35.72625512103049,51.27575707097688,1370.0022670207545,6.915489126413377e-05,-2.2833804450783646e-05,0.0,0.0,0.0,0.0,342.99260869565217,70.0,0.0,255.0,0.0
21.450000000000163,35.72625858823115,51.275755938174065,1370.0022664293647,6.915489132097719e-05,-2.2833804337096808e-05,0.0,0.0,1.1368683772161603e-12,0.0,342.98380434782604,70.0,0.0,255.0,0.0
21.500000000000163,35.72626205543292,51.275754805369466,1370.0022658370435,6.915489126413377e-05,-2.2833804337096808e-05,0.0,-5.684341886080801e-13,0.0,0.0,342.97499999999997,70.0,0.0,255.0,0.0
21.550000000000164,35.72626552263579,51.27575367256309,1370.002265246585,6.915489126413377e-05,-2.2833804337096808e-05,0.0,5.684341886080801e-13,1.1368683772161603e-12,0.0,342.9661956521739,70.0,0.0,255.0,0.0
21.600000000000165,35.726268989839795,51.275752539754926,1370.0022646570578,6.915489132097719e-05,-2.283380422340997e-05,0.0,5.684341886080801e-13,0.0,0.0,342.9573913043478,70.0,0.0,255.0,0.0
21.650000000000166,35.7262724570449,51.27575140694499,1370.002264065668,6.915489132097719e-05,-2.2833804337096808e-05,0.0,-5.684341886080801e-13,-2.2737367544323206e-12,0.0,342.9485869565217,70.0,0.0,255.0,0.0
21.700000000000166,35.72627592425112,51.27575027413326,1370.0022634761408,6.915489126413377e-05,-2.2833804450783646e-05,0.0,0.0,0.0,0.0,342.9397826086956,70.0,0.0,255.0,0.0
21.750000000000167,35.726279391458455,51.27574914131976,1370.0022628838196,6.915489132097719e-05,-2.2833804337096808e-05,0.0,5.684341886080801e-13,1.1368683772161603e-12,0.0,342.93097826086955,70.0,0.0,255.0,0.0
21.800000000000168,35.726282858666906,51.27574800850447,1370.0022622924298,6.915489132097719e-05,-2.2833804337096808e-05,0.0,0.0,-1.1368683772161603e-12,0.0,342.9221739130434,70.0,0.0,255.0,0.0
21.85000000000017,35.72628632587646,51.27574687568739,1370.0022617029026,6.915489132097719e-05,-2.2833804450783646e-05,0.0,0.0,0.0,0.0,342.91336956521735,70.0,0.0,255.0,0.0
21.90000000000017,35.72628979308712,51.27574574286854,1370.0022611143067,6.915489132097719e-05,-2.2833804337096808e-05,0.0,-5.684341886080801e-13,2.2737367544323206e-12,0.0,342.9045652173913,70.0,0.0,255.0,0.0
21.95000000000017,35.72629326029889,51.2757446100479,1370.0022605219856,6.915489126413377e-05,-2.283380422340997e-05,0.0,0.0,0.0,0.0,342.8957608695652,70.0,0.0,255.0,0.0
22.00000000000017,35.72629672751179,51.27574347722547,1370.002259931527,6.915489132097719e-05,-2.2833804337096808e-05,0.0,5.684341886080801e-13,-1.1368683772161603e-12,0.0,342.8869565217391,70.0,0.0,255.0,0.0
22.05000000000017,35.72630019472577,51.275742344401266,1370.002259342,6.915489132097719e-05,-2.2833804337096808e-05,0.0,-5.684341886080801e-13,0.0,0.0,342.878152173913,70.0,0.0,255.0,0.0
22.100000000000172,35.72630366194089,51.27574121157527,1370.0022587515414,6.915489126413377e-05,-2.2833804337096808e-05,0.0,0.0,-1.1368683772161603e-12,0.0,342.86934782608694,70.0,0.0,255.0,0.0
22.150000000000173,35.726307129157114,51.275740078747496,1370.0022581601515,6.915489132097719e-05,-2.2833804450783646e-05,0.0,5.684341886080801e-13,-1.1368683772161603e-12,0.0,342.86054347826087,70.0,0.0,255.0,0.0
22.200000000000173,35.72631059637445,51.27573894591793,1370.0022575706244,6.915489132097719e-05,-2.2833804450783646e-05,0.0,0.0,1.1368683772161603e-12,0.0,342.85173913043474,70.0,0.0,255.0,0.0
22.250000000000174,35.72631406359289,51.27573781308659,1370.0022569792345,6.915489132097719e-05,-2.2833804337096808e-05,0.0,0.0,2.2737367544323206e-12,0.0,342.84293478260867,70.0,0.0,255.0,0.0
22.300000000000175,35.726317530812445,51.27573668025346,1370.002256388776,6.915489132097719e-05,-2.283380422340997e-05,0.0,-5.684341886080801e-13,0.0,0.0,342.8341304347826,70.0,0.0,255.0,0.0
22.350000000000176,35.726320998033096,51.27573554741855,1370.0022557992488,6.915489126413377e-05,-2.2833804337096808e-05,0.0,0.0,-1.1368683772161603e-12,0.0,342.82532608695647,70.0,0.0,255.0,0.0
22.400000000000176,35.726324465254855,51.27573441458185,1370.0022552097216,6.915489132097719e-05,-2.2833804337096808e-05,0.0,5.684341886080801e-13,0.0,0.0,342.8165217391304,70.0,0.0,255.0,0.0
22.450000000000177,35.726327932477744,51.27573328174337,1370.0022546183318,6.915489132097719e-05,-2.2833804337096808e-05,0.0,-5.684341886080801e-13,-1.1368683772161603e-12,0.0,342.8077173913043,70.0,0.0,255.0,0.0
22.500000000000178,35.72633139970173,51.27573214890311,1370.00225403253,6.915489126413377e-05,-2.2833804450783646e-05,0.0,0.0,0.0,0.0,342.79891304347825,70.0,0.0,255.0,0.0
22.55000000000018,35.72633486692682,51.275731016061044,1370.0022534402087,6.915489132097719e-05,-2.2833804337096808e-05,0.0,5.684341886080801e-13,1.1368683772161603e-12,0.0,342.7901086956521,70.0,0.0,255.0,0.0
22.60000000000018,35.72633833415302,51.2757298832172,1370.0022528506815,6.915489132097719e-05,-2.2833804337096808e-05,0.0,0.0,0.0,0.0,342.78130434782605,70.0,0.0,255.0,0.0
22.65000000000018,35.72634180138033,51.27572875037158,1370.0022522611544,6.915489132097719e-05,-2.2833804337096808e-05,0.0,0.0,0.0,0.0,342.7725,70.0,0.0,255.0,0.0
22.70000000000018,35.72634526860875,51.27572761752416,1370.0022516706958,6.915489132097719e-05,-2.2833804337096808e-05,0.0,-5.684341886080801e-13,0.0,0.0,342.7636956521739,70.0,0.0,255.0,0.0
22.75000000000018,35.72634873583827,51.275726484674955,1370.0022510802373,6.915489126413377e-05,-2.2833804337096808e-05,0.0,0.0,0.0,0.0,342.7548913043478,70.0,0.0,255.0,0.0
22.800000000000182,35.72635220306891,51.27572535182397,1370.0022504897788,6.915489132097719e-05,-2.2833804337096808e-05,0.0,5.684341886080801e-13,0.0,0.0,342.7460869565217,70.0,0.0,255.0,0.0
22.850000000000183,35.726355670300656,51.27572421897119,1370.002249901183,6.915489132097719e-05,-2.2833804337096808e-05,0.0,-5.684341886080801e-13,0.0,0.0,342.73728260869564,70.0,0.0,255.0,0.0
22.900000000000183,35.7263591375335,51.275723086116635,1370.002249312587,6.915489126413377e-05,-2.2833804337096808e-05,0.0,-5.684341886080801e-13,-1.1368683772161603e-12,0.0,342.7284782608695,70.0,0.0,255.0,0.0
22.950000000000184,35.726362604767445,51.27572195326028,1370.0022487221286,6.915489126413377e-05,-2.2833804450783646e-05,0.0,5.684341886080801e-13,0.0,0.0,342.71967391304344,70.0,0.0,255.0,0.0
23.000000000000185,35.7263660720025,51.27572082040214,1370.0022481326014,6.915489132097719e-05,-2.2833804337096808e-05,0.0,0.0,1.1368683772161603e-12,0.0,342.71086956521737,70.0,0.0,255.0,0.0
23.050000000000185,35.72636953923868,51.27571968754222,1370.0022475430742,6.915489126413377e-05,-2.2833804337096808e-05,0.0,0.0,0.0,0.0,342.7020652173913,70.0,0.0,255.0,0.0
23.100000000000186,35.72637300647594,51.2757185546805,1370.0022469526157,6.915489132097719e-05,-2.2833804337096808e-05,0.0,5.684341886080801e-13,1.1368683772161603e-12,0.0,342.69326086956517,70.0,0.0,255.0,0.0
23.150000000000187,35.726376473714325,51.275717421817,1370.0022463630885,6.915489132097719e-05,-2.283380422340997e-05,0.0,0.0,0.0,0.0,342.6844565217391,70.0,0.0,255.0,0.0
23.200000000000188,35.72637994095379,51.27571628895171,1370.0022457744926,6.915489132097719e-05,-2.2833804337096808e-05,0.0,0.0,-2.2737367544323206e-12,0.0,342.675652173913,70.0,0.0,255.0,0.0
23.25000000000019,35.726383408194394,51.27571515608464,1370.0022451849654,6.915489132097719e-05,-2.2833804450783646e-05,0.0,-5.684341886080801e-13,0.0,0.0,342.66684782608695,70.0,0.0,255.0,0.0
23.30000000000019,35.726386875436084,51.27571402321576,1370.0022445963696,6.915489126413377e-05,-2.2833804337096808e-05,0.0,0.0,1.1368683772161603e-12,0.0,342.6580434782608,70.0,0.0,255.0,0.0
23.35000000000019,35.7263903426789,51.27571289034511,1370.0022440077737,6.915489132097719e-05,-2.2833804337096808e-05,0.0,5.684341886080801e-13,-1.1368683772161603e-12,0.0,342.64923913043475,70.0,0.0,255.0,0.0
23.40000000000019,35.7263938099228,51.27571175747266,1370.0022434173152,6.915489132097719e-05,-2.2833804450783646e-05,0.0,-5.684341886080801e-13,0.0,0.0,342.6404347826087,70.0,0.0,255.0,0.0
23.45000000000019,35.726397277167806,51.27571062459842,1370.0022428296506,6.915489126413377e-05,-2.2833804337096808e-05,0.0,0.0,2.2737367544323206e-12,0.0,342.63163043478255,70.0,0.0,255.0,0.0
23.500000000000192,35.72640074441391,51.275709491722395,1370.0022422391921,6.915489132097719e-05,-2.283380422340997e-05,0.0,5.684341886080801e-13,0.0,0.0,342.6228260869565,70.0,0.0,255.0,0.0
23.550000000000193,35.726404211661134,51.275708358844575,1370.0022416515276,6.915489132097719e-05,-2.2833804337096808e-05,0.0,0.0,-1.1368683772161603e-12,0.0,342.6140217391304,70.0,0.0,255.0,0.0
23.600000000000193,35.72640767890945,51.27570722596497,1370.0022410620004,6.915489132097719e-05,-2.2833804337096808e-05,0.0,0.0,0.0,0.0,342.60521739130434,70.0,0.0,255.0,0.0
23.650000000000194,35.726411146158874,51.27570609308358,1370.0022404734045,6.915489132097719e-05,-2.2833804337096808e-05,0.0,-5.684341886080801e-13,-1.1368683772161603e-12,0.0,342.5964130434782,70.0,0.0,255.0,0.0
23.700000000000195,35.726414613409396,51.27570496020038,1370.00223988574,6.915489126413377e-05,-2.2833804450783646e-05,0.0,0.0,0.0,0.0,342.58760869565214,70.0,0.0,255.0,0.0
23.750000000000195,35.72641808066103,51.27570382731541,1370.0022392962128,6.915489132097719e-05,-2.2833804337096808e-05,0.0,5.684341886080801e-13,1.1368683772161603e-12,0.0,342.57880434782606,70.0,0.0,255.0,0.0
23.800000000000196,35.72642154791376,51.27570269442863,1370.0022387066856,6.915489132097719e-05,-2.2833804337096808e-05,0.0,-5.684341886080801e-13,0.0,0.0,342.57,70.0,0.0,255.0,0.0
23.850000000000197,35.72642501516761,51.27570156154008,1370.0022381180897,6.915489126413377e-05,-2.2833804337096808e-05,0.0,0.0,0.0,0.0,342.56119565217386,70.0,0.0,255.0,0.0
23.900000000000198,35.72642848242253,51.275700428649714,1370.0022375294939,6.915489132097719e-05,-2.2833804337096808e-05,0.0,5.684341886080801e-13,0.0,0.0,342.5523913043478,70.0,0.0,255.0,0.0
23.9500000000002,35.72643194967858,51.275699295757576,1370.002236940898,6.915489132097719e-05,-2.2833804337096808e-05,0.0,0.0,0.0,0.0,342.5435869565217,70.0,0.0,255.0,0.0
24.0000000000002,35.726435416935715,51.27569816286364,1370.0022363532335,6.915489132097719e-05,-2.2833804337096808e-05,0.0,0.0,-1.1368683772161603e-12,0.0,342.5347826086956,70.0,0.0,255.0,0.0
24.0500000000002,35.72643888419396,51.27569702996791,1370.002235762775,6.915489132097719e-05,-2.2833804450783646e-05,0.0,-5.684341886080801e-13,0.0,0.0,342.5259782608695,70.0,0.0,255.0,0.0
24.1000000000002,35.726442351453294,51.275695897070385,1370.002235176973,6.915489126413377e-05,-2.2833804337096808e-05,0.0,0.0,1.1368683772161603e-12,0.0,342.51717391304345,70.0,0.0,255.0,0.0
24.1500000000002,35.726445818713756,51.27569476417108,1370.0022345865145,6.915489132097719e-05,-2.2833804337096808e-05,0.0,5.684341886080801e-13,0.0,0.0,342.5083695652174,70.0,0.0,255.0,0.0
24.200000000000202,35.72644928597529,51.27569363126997,1370.0022340007126,6.915489132097719e-05,-2.2833804337096808e-05,0.0,-5.684341886080801e-13,0.0,0.0,342.49956521739125,70.0,0.0,255.0,0.0
24.250000000000203,35.72645275323795,51.27569249836707,1370.002233413048,6.915489126413377e-05,-2.2833804337096808e-05,0.0,0.0,0.0,0.0,342.4907608695652,70.0,0.0,255.0,0.0
24.300000000000203,35.726456220501696,51.27569136546237,1370.002232823521,6.915489132097719e-05,-2.2833804337096808e-05,0.0,5.684341886080801e-13,0.0,0.0,342.4819565217391,70.0,0.0,255.0,0.0
24.350000000000204,35.72645968776654,51.275690232555895,1370.0022322339937,6.915489132097719e-05,-2.2833804337096808e-05,0.0,-1.1368683772161603e-12,0.0,0.0,342.47315217391304,70.0,0.0,255.0,0.0
24.400000000000205,35.726463155032484,51.27568909964761,1370.0022316472605,6.915489120729035e-05,-2.2833804337096808e-05,0.0,0.0,0.0,0.0,342.4643478260869,70.0,0.0,255.0,0.0
24.450000000000205,35.72646662229953,51.27568796673754,1370.002231059596,6.915489132097719e-05,-2.2833804337096808e-05,0.0,1.1368683772161603e-12,-1.1368683772161603e-12,0.0,342.45554347826084,70.0,0.0,255.0,0.0
24.500000000000206,35.72647008956769,51.275686833825674,1370.0022304728627,6.915489132097719e-05,-2.2833804450783646e-05,0.0,0.0,0.0,0.0,342.44673913043476,70.0,0.0,255.0,0.0
24.550000000000207,35.726473556836936,51.275685700912014,1370.0022298824042,6.915489132097719e-05,-2.2833804337096808e-05,0.0,0.0,1.1368683772161603e-12,0.0,342.43793478260864,70.0,0.0,255.0,0.0
24.600000000000207,35.72647702410729,51.275684567996564,1370.002229295671,6.915489132097719e-05,-2.2833804337096808e-05,0.0,-5.684341886080801e-13,0.0,0.0,342.42913043478256,70.0,0.0,255.0,0.0
24.650000000000208,35.72648049137873,51.27568343507931,1370.0022287052125,6.915489126413377e-05,-2.2833804337096808e-05,0.0,0.0,1.1368683772161603e-12,0.0,342.4203260869565,70.0,0.0,255.0,0.0
24.70000000000021,35.72648395865128,51.27568230216026,1370.0022281194106,6.915489132097719e-05,-2.283380422340997e-05,0.0,5.684341886080801e-13,0.0,0.0,342.4115217391304,70.0,0.0,255.0,0.0
24.75000000000021,35.72648742592493,51.27568116923943,1370.0022275308147,6.915489132097719e-05,-2.2833804337096808e-05,0.0,-5.684341886080801e-13,-2.2737367544323206e-12,0.0,342.4027173913043,70.0,0.0,255.0,0.0
24.80000000000021,35.726490893199674,51.27568003631678,1370.0022269450128,6.915489126413377e-05,-2.2833804450783646e-05,0.0,0.0,0.0,0.0,342.3939130434782,70.0,0.0,255.0,0.0
24.85000000000021,35.7264943604755,51.27567890339235,1370.002226356417,6.915489132097719e-05,-2.2833804337096808e-05,0.0,5.684341886080801e-13,1.1368683772161603e-12,0.0,342.38510869565215,70.0,0.0,255.0,0.0
24.90000000000021,35.726497827752446,51.27567777046614,1370.0022257687524,6.915489132097719e-05,-2.2833804337096808e-05,0.0,0.0,-1.1368683772161603e-12,0.0,342.3763043478261,70.0,0.0,255.0,0.0
24.950000000000212,35.726501295030474,51.275676637538105,1370.0022251810879,6.915489132097719e-05,-2.2833804450783646e-05,0.0,0.0,0.0,0.0,342.36749999999995,70.0,0.0,255.0,0.0
25.000000000000213,35.72650476230962,51.27567550460828,1370.002224592492,6.915489132097719e-05,-2.2833804337096808e-05,0.0,-5.684341886080801e-13,2.2737367544323206e-12,0.0,342.3586956521739,70.0,0.0,255.0,0.0
25.050000000000214,35.72650822958984,51.27567437167668,1370.0022240048274,6.915489126413377e-05,-2.283380422340997e-05,0.0,0.0,0.0,0.0,342.3498913043478,70.0,0.0,255.0,0.0
25.100000000000215,35.72651169687118,51.27567323874327,1370.0022234199569,6.915489132097719e-05,-2.2833804337096808e-05,0.0,5.684341886080801e-13,-1.1368683772161603e-12,0.0,342.3410869565217,70.0,0.0,255.0,0.0
25.150000000000215,35.726515164153604,51.275672105808056,1370.002222831361,6.915489132097719e-05,-2.2833804337096808e-05,0.0,-5.684341886080801e-13,0.0,0.0,342.3322826086956,70.0,0.0,255.0,0.0
25.200000000000216,35.72651863143712,51.275670972871055,1370.002222245559,6.915489126413377e-05,-2.2833804337096808e-05,0.0,0.0,-1.1368683772161603e-12,0.0,342.32347826086954,70.0,0.0,255.0,0.0
25.250000000000217,35.72652209872174,51.27566983993225,1370.0022216578946,6.915489132097719e-05,-2.2833804450783646e-05,0.0,5.684341886080801e-13,0.0,0.0,342.31467391304346,70.0,0.0,255.0,0.0
25.300000000000217,35.726525566007446,51.27566870699165,1370.0022210711613,6.915489132097719e-05,-2.2833804337096808e-05,0.0,0.0,1.1368683772161603e-12,0.0,342.30586956521734,70.0,0.0,255.0,0.0
25.350000000000218,35.726529033294256,51.27566757404926,1370.0022204834968,6.915489132097719e-05,-2.2833804337096808e-05,0.0,0.0,0.0,0.0,342.29706521739126,70.0,0.0,255.0,0.0
25.40000000000022,35.726532500582174,51.27566644110507,1370.0022198967636,6.915489132097719e-05,-2.2833804337096808e-05,0.0,-5.684341886080801e-13,0.0,0.0,342.2882608695652,70.0,0.0,255.0,0.0
25.45000000000022,35.726535967871165,51.27566530815906,1370.002219309099,6.915489126413377e-05,-2.2833804337096808e-05,0.0,0.0,0.0,0.0,342.2794565217391,70.0,0.0,255.0,0.0
25.50000000000022,35.726539435161264,51.27566417521128,1370.0022187214345,6.915489132097719e-05,-2.2833804337096808e-05,0.0,5.684341886080801e-13,0.0,0.0,342.270652173913,70.0,0.0,255.0,0.0
25.55000000000022,35.726542902452465,51.2756630422617,1370.0022181347013,6.915489132097719e-05,-2.2833804337096808e-05,0.0,-5.684341886080801e-13,0.0,0.0,342.2618478260869,70.0,0.0,255.0,0.0
25.60000000000022,35.726546369744746,51.27566190931031,1370.002217547968,6.915489126413377e-05,-2.2833804337096808e-05,0.0,0.0,0.0,0.0,342.25304347826085,70.0,0.0,255.0,0.0
25.650000000000222,35.72654983703812,51.27566077635713,1370.0022169612348,6.915489132097719e-05,-2.2833804337096808e-05,0.0,5.684341886080801e-13,-1.1368683772161603e-12,0.0,342.2442391304347,70.0,0.0,255.0,0.0
25.700000000000223,35.726553304332604,51.27565964340214,1370.0022163745016,6.915489132097719e-05,-2.2833804450783646e-05,0.0,0.0,0.0,0.0,342.23543478260865,70.0,0.0,255.0,0.0
25.750000000000224,35.72655677162817,51.275658510445346,1370.0022157877684,6.915489132097719e-05,-2.2833804337096808e-05,0.0,0.0,1.1368683772161603e-12,0.0,342.2266304347826,70.0,0.0,255.0,0.0
25.800000000000225,35.72656023892483,51.27565737748677,1370.0022152010351,6.915489132097719e-05,-2.2833804337096808e-05,0.0,-1.1368683772161603e-12,0.0,0.0,342.2178260869565,70.0,0.0,255.0,0.0
25.850000000000225,35.72656370622259,51.27565624452639,1370.0022146124393,6.915489120729035e-05,-2.2833804337096808e-05,0.0,0.0,1.1368683772161603e-12,0.0,342.2090217391304,70.0,0.0,255.0,0.0
25.900000000000226,35.726567173521424,51.27565511156421,1370.0022140275687,6.915489132097719e-05,-2.283380422340997e-05,0.0,1.1368683772161603e-12,0.0,0.0,342.2002173913043,70.0,0.0,255.0,0.0
25.950000000000227,35.72657064082138,51.275653978600225,1370.0022134408355,6.915489132097719e-05,-2.2833804337096808e-05,0.0,-5.684341886080801e-13,-2.2737367544323206e-12,0.0,342.19141304347824,70.0,0.0,255.0,0.0
26.000000000000227,35.726574108122406,51.27565284563444,1370.0022128550336,6.915489126413377e-05,-2.2833804450783646e-05,0.0,0.0,-1.1368683772161603e-12,0.0,342.18260869565216,70.0,0.0,255.0,0.0
26.050000000000228,35.726577575424535,51.27565171266686,1370.0022122683004,6.915489132097719e-05,-2.2833804450783646e-05,0.0,5.684341886080801e-13,1.1368683772161603e-12,0.0,342.17380434782604,70.0,0.0,255.0,0.0
26.10000000000023,35.72658104272776,51.275650579697476,1370.0022116824985,6.915489132097719e-05,-2.2833804337096808e-05,0.0,-5.684341886080801e-13,1.1368683772161603e-12,0.0,342.16499999999996,70.0,0.0,255.0,0.0
26.15000000000023,35.726584510032076,51.275649446726305,1370.0022110957652,6.915489126413377e-05,-2.2833804337096808e-05,0.0,0.0,0.0,0.0,342.1561956521739,70.0,0.0,255.0,0.0
26.20000000000023,35.72658797733748,51.27564831375331,1370.002210509032,6.915489132097719e-05,-2.2833804337096808e-05,0.0,5.684341886080801e-13,1.1368683772161603e-12,0.0,342.14739130434776,70.0,0.0,255.0,0.0
26.25000000000023,35.72659144464398,51.275647180778506,1370.00220992323,6.915489132097719e-05,-2.283380422340997e-05,0.0,0.0,0.0,0.0,342.1385869565217,70.0,0.0,255.0,0.0
26.30000000000023,35.72659491195157,51.275646047801935,1370.0022093383595,6.915489132097719e-05,-2.2833804337096808e-05,0.0,0.0,-2.2737367544323206e-12,0.0,342.1297826086956,70.0,0.0,255.0,0.0
26.350000000000232,35.72659837926025,51.275644914823545,1370.002208750695,6.915489132097719e-05,-2.2833804450783646e-05,0.0,-5.684341886080801e-13,0.0,0.0,342.12097826086955,70.0,0.0,255.0,0.0
26.400000000000233,35.726601846570006,51.27564378184335,1370.002208164893,6.915489126413377e-05,-2.2833804337096808e-05,0.0,0.0,1.1368683772161603e-12,0.0,342.1121739130434,70.0,0.0,255.0,0.0
26.450000000000234,35.72660531388088,51.275642648861364,1370.0022075790912,6.915489132097719e-05,-2.2833804337096808e-05,0.0,5.684341886080801e-13,-1.1368683772161603e-12,0.0,342.10336956521735,70.0,0.0,255.0,0.0
26.500000000000234,35.72660878119283,51.27564151587756,1370.0022069942206,6.915489132097719e-05,-2.2833804450783646e-05,0.0,-5.684341886080801e-13,0.0,0.0,342.0945652173913,70.0,0.0,255.0,0.0
26.550000000000235,35.72661224850588,51.275640382891964,1370.0022064084187,6.915489126413377e-05,-2.2833804337096808e-05,0.0,0.0,2.2737367544323206e-12,0.0,342.0857608695652,70.0,0.0,255.0,0.0
26.600000000000236,35.72661571582,51.275639249904565,1370.0022058226168,6.915489132097719e-05,-2.283380422340997e-05,0.0,5.684341886080801e-13,0.0,0.0,342.0769565217391,70.0,0.0,255.0,0.0
26.650000000000237,35.72661918313524,51.27563811691537,1370.0022052349523,6.915489132097719e-05,-2.2833804337096808e-05,0.0,0.0,-1.1368683772161603e-12,0.0,342.068152173913,70.0,0.0,255.0,0.0
26.700000000000237,35.72662265045154,51.27563698392435,1370.0022046500817,6.915489132097719e-05,-2.2833804337096808e-05,0.0,0.0,0.0,0.0,342.05934782608693,70.0,0.0,255.0,0.0
26.750000000000238,35.72662611776895,51.27563585093155,1370.0022040642798,6.915489132097719e-05,-2.2833804337096808e-05,0.0,-5.684341886080801e-13,-1.1368683772161603e-12,0.0,342.0505434782608,70.0,0.0,255.0,0.0
26.80000000000024,35.72662958508743,51.275634717936924,1370.0022034775466,6.915489126413377e-05,-2.2833804450783646e-05,0.0,0.0,0.0,0.0,342.04173913043473,70.0,0.0,255.0,0.0
26.85000000000024,35.726633052407024,51.27563358494051,1370.0022028936073,6.915489132097719e-05,-2.2833804337096808e-05,0.0,5.684341886080801e-13,1.1368683772161603e-12,0.0,342.03293478260866,70.0,0.0,255.0,0.0
26.90000000000024,35.72663651972769,51.27563245194229,1370.002202306874,6.915489132097719e-05,-2.2833804337096808e-05,0.0,-5.684341886080801e-13,0.0,0.0,342.0241304347826,70.0,0.0,255.0,0.0
26.95000000000024,35.72663998704945,51.27563131894227,1370.0022017238662,6.915489126413377e-05,-2.2833804337096808e-05,0.0,0.0,0.0,0.0,342.01532608695646,70.0,0.0,255.0,0.0
27.00000000000024,35.7266434543723,51.27563018594043,1370.0022011380643,6.915489132097719e-05,-2.2833804337096808e-05,0.0,5.684341886080801e-13,0.0,0.0,342.0065217391304,70.0,0.0,255.0,0.0
27.050000000000242,35.726646921696236,51.275629052936814,1370.0022005522624,6.915489132097719e-05,-2.2833804337096808e-05,0.0,0.0,0.0,0.0,341.9977173913043,70.0,0.0,255.0,0.0
27.100000000000243,35.72665038902126,51.27562791993136,1370.002199968323,6.915489132097719e-05,-2.2833804337096808e-05,0.0,0.0,0.0,0.0,341.9889130434782,70.0,0.0,255.0,0.0
27.150000000000244,35.72665385634737,51.275626786924114,1370.00219938159,6.915489132097719e-05,-2.2833804337096808e-05,0.0,-5.684341886080801e-13,0.0,0.0,341.9801086956521,70.0,0.0,255.0,0.0
27.200000000000244,35.72665732367457,51.27562565391507,1370.002198795788,6.915489126413377e-05,-2.2833804337096808e-05,0.0,0.0,-1.1368683772161603e-12,0.0,341.97130434782605,70.0,0.0,255.0,0.0
27.250000000000245,35.726660791002864,51.275624520904216,1370.0021982109174,6.915489132097719e-05,-2.2833804450783646e-05,0.0,0.0,0.0,0.0,341.9625,70.0,0.0,255.0,0.0
27.300000000000246,35.72666425833222,51.27562338789156,1370.0021976251155,6.915489126413377e-05,-2.2833804337096808e-05,0.0,-5.684341886080801e-13,1.1368683772161603e-12,0.0,341.95369565217385,70.0,0.0,255.0,0.0
27.350000000000247,35.72666772566269,51.2756222548771,1370.0021970411763,6.915489126413377e-05,-2.2833804337096808e-05,0.0,5.684341886080801e-13,0.0,0.0,341.9448913043478,70.0,0.0,255.0,0.0
27.400000000000247,35.72667119299423,51.27562112186082,1370.0021964553744,6.915489132097719e-05,-2.2833804337096808e-05,0.0,5.684341886080801e-13,1.1368683772161603e-12,0.0,341.9360869565217,70.0,0.0,255.0,0.0
27.450000000000248,35.72667466032686,51.27561998884274,1370.0021958695725,6.915489132097719e-05,-2.283380422340997e-05,0.0,-5.684341886080801e-13,0.0,0.0,341.92728260869563,70.0,0.0,255.0,0.0
27.50000000000025,35.72667812766058,51.27561885582287,1370.0021952865645,6.915489126413377e-05,-2.2833804337096808e-05,0.0,0.0,-2.2737367544323206e-12,0.0,341.9184782608695,70.0,0.0,255.0,0.0
27.55000000000025,35.72668159499539,51.27561772280117,1370.002194701694,6.915489132097719e-05,-2.2833804450783646e-05,0.0,5.684341886080801e-13,0.0,0.0,341.90967391304343,70.0,0.0,255.0,0.0
27.60000000000025,35.72668506233128,51.275616589777684,1370.002194115892,6.915489132097719e-05,-2.2833804337096808e-05,0.0,0.0,1.1368683772161603e-12,0.0,341.90086956521736,70.0,0.0,255.0,0.0
27.65000000000025,35.72668852966825,51.27561545675237,1370.0021935319528,6.915489132097719e-05,-2.2833804337096808e-05,0.0,0.0,-1.1368683772161603e-12,0.0,341.89206521739123,70.0,0.0,255.0,0.0
27.70000000000025,35.72669199700632,51.275614323725264,1370.0021929470822,6.915489132097719e-05,-2.2833804450783646e-05,0.0,-5.684341886080801e-13,0.0,0.0,341.88326086956516,70.0,0.0,255.0,0.0
27.750000000000252,35.72669546434546,51.27561319069634,1370.0021923612803,6.915489126413377e-05,-2.2833804337096808e-05,0.0,0.0,2.2737367544323206e-12,0.0,341.8744565217391,70.0,0.0,255.0,0.0
27.800000000000253,35.7266989316857,51.275612057665626,1370.002191777341,6.915489132097719e-05,-2.283380422340997e-05,0.0,5.684341886080801e-13,0.0,0.0,341.865652173913,70.0,0.0,255.0,0.0
27.850000000000254,35.72670239902701,51.275610924633085,1370.0021911934018,6.915489132097719e-05,-2.2833804337096808e-05,0.0,-5.684341886080801e-13,-2.2737367544323206e-12,0.0,341.8568478260869,70.0,0.0,255.0,0.0
27.900000000000254,35.72670586636942,51.27560979159875,1370.0021906094626,6.915489126413377e-05,-2.2833804450783646e-05,0.0,0.0,0.0,0.0,341.8480434782608,70.0,0.0,255.0,0.0
27.950000000000255,35.7267093337129,51.27560865856259,1370.002190024592,6.915489132097719e-05,-2.2833804337096808e-05,0.0,5.684341886080801e-13,1.1368683772161603e-12,0.0,341.83923913043475,70.0,0.0,255.0,0.0
28.000000000000256,35.726712801057474,51.27560752552464,1370.00218943879,6.915489132097719e-05,-2.2833804337096808e-05,0.0,0.0,-1.1368683772161603e-12,0.0,341.8304347826087,70.0,0.0,255.0,0.0
28.050000000000257,35.72671626840312,51.27560639248487,1370.0021888557822,6.915489132097719e-05,-2.2833804450783646e-05,0.0,0.0,0.0,0.0,341.82163043478255,70.0,0.0,255.0,0.0
28.100000000000257,35.72671973574985,51.27560525944329,1370.0021882709116,6.915489132097719e-05,-2.2833804337096808e-05,0.0,-5.684341886080801e-13,2.2737367544323206e-12,0.0,341.8128260869565,70.0,0.0,255.0,0.0
28.150000000000258,35.72672320309766,51.275604126399905,1370.0021876879036,6.915489126413377e-05,-2.283380422340997e-05,0.0,0.0,0.0,0.0,341.8040217391304,70.0,0.0,255.0,0.0
28.20000000000026,35.726726670446574,51.27560299335472,1370.002187103033,6.915489132097719e-05,-2.2833804337096808e-05,0.0,5.684341886080801e-13,-1.1368683772161603e-12,0.0,341.7952173913043,70.0,0.0,255.0,0.0
28.25000000000026,35.72673013779655,51.2756018603077,1370.0021865181625,6.915489132097719e-05,-2.2833804337096808e-05,0.0,-5.684341886080801e-13,0.0,0.0,341.7864130434782,70.0,0.0,255.0,0.0
28.30000000000026,35.72673360514763,51.2756007272589,1370.0021859351546,6.915489126413377e-05,-2.2833804337096808e-05,0.0,0.0,-1.1368683772161603e-12,0.0,341.77760869565213,70.0,0.0,255.0,0.0
28.35000000000026,35.72673707249978,51.27559959420827,1370.002185350284,6.915489132097719e-05,-2.2833804450783646e-05,0.0,5.684341886080801e-13,0.0,0.0,341.76880434782606,70.0,0.0,255.0,0.0
28.40000000000026,35.72674053985301,51.27559846115584,1370.0021847654134,6.915489132097719e-05,-2.2833804337096808e-05,0.0,0.0,1.1368683772161603e-12,0.0,341.75999999999993,70.0,0.0,255.0,0.0
28.450000000000262,35.726744007207316,51.2755973281016,1370.0021841824055,6.915489132097719e-05,-2.2833804337096808e-05,0.0,0.0,0.0,0.0,341.75119565217386,70.0,0.0,255.0,0.0
28.500000000000263,35.72674747456272,51.275596195045544,1370.0021835984662,6.915489132097719e-05,-2.2833804337096808e-05,0.0,-5.684341886080801e-13,0.0,0.0,341.7423913043478,70.0,0.0,255.0,0.0
28.550000000000264,35.726750941919185,51.27559506198768,1370.002183017321,6.915489126413377e-05,-2.2833804337096808e-05,0.0,0.0,0.0,0.0,341.7335869565217,70.0,0.0,255.0,0.0
28.600000000000264,35.72675440927675,51.275593928928004,1370.0021824305877,6.915489132097719e-05,-2.2833804337096808e-05,0.0,0.0,0.0,0.0,341.7247826086956,70.0,0.0,255.0,0.0
28.650000000000265,35.72675787663538,51.275592795866515,1370.0021818494424,6.915489126413377e-05,-2.2833804337096808e-05,0.0,-5.684341886080801e-13,0.0,0.0,341.7159782608695,70.0,0.0,255.0,0.0
28.700000000000266,35.726761343995115,51.27559166280322,1370.0021812645718,6.915489126413377e-05,-2.2833804337096808e-05,0.0,5.684341886080801e-13,0.0,0.0,341.70717391304345,70.0,0.0,255.0,0.0
28.750000000000266,35.726764811355906,51.27559052973812,1370.002180681564,6.915489132097719e-05,-2.2833804337096808e-05,0.0,5.684341886080801e-13,-1.1368683772161603e-12,0.0,341.6983695652173,70.0,0.0,255.0,0.0
28.800000000000267,35.726768278717785,51.27558939667119,1370.0021800976247,6.915489132097719e-05,-2.2833804450783646e-05,0.0,-5.684341886080801e-13,0.0,0.0,341.68956521739125,70.0,0.0,255.0,0.0
28.850000000000268,35.72677174608074,51.275588263602465,1370.0021795146167,6.915489126413377e-05,-2.2833804337096808e-05,0.0,0.0,1.1368683772161603e-12,0.0,341.6807608695652,70.0,0.0,255.0,0.0
28.90000000000027,35.72677521344479,51.27558713053192,1370.0021789297462,6.915489132097719e-05,-2.2833804337096808e-05,0.0,5.684341886080801e-13,0.0,0.0,341.6719565217391,70.0,0.0,255.0,0.0
28.95000000000027,35.7267786808099,51.275585997459565,1370.0021783467382,6.915489132097719e-05,-2.2833804337096808e-05,0.0,0.0,1.1368683772161603e-12,0.0,341.663152173913,70.0,0.0,255.0,0.0
29.00000000000027,35.72678214817611,51.27558486438539,1370.0021777637303,6.915489132097719e-05,-2.283380422340997e-05,0.0,0.0,0.0,0.0,341.6543478260869,70.0,0.0,255.0,0.0
29.05000000000027,35.7267856155434,51.27558373130941,1370.0021771816537,6.915489132097719e-05,-2.2833804337096808e-05,0.0,-5.684341886080801e-13,-2.2737367544323206e-12,0.0,341.64554347826083,70.0,0.0,255.0,0.0
29.10000000000027,35.72678908291175,51.27558259823162,1370.002176596783,6.915489126413377e-05,-2.2833804450783646e-05,0.0,0.0,0.0,0.0,341.63673913043476,70.0,0.0,255.0,0.0
29.150000000000272,35.726792550281175,51.27558146515201,1370.0021760147065,6.915489132097719e-05,-2.2833804337096808e-05,0.0,5.684341886080801e-13,1.1368683772161603e-12,0.0,341.62793478260863,70.0,0.0,255.0,0.0
29.200000000000273,35.72679601765169,51.27558033207059,1370.0021754316986,6.915489132097719e-05,-2.2833804337096808e-05,0.0,-5.684341886080801e-13,-1.1368683772161603e-12,0.0,341.61913043478256,70.0,0.0,255.0,0.0
29.250000000000274,35.72679948502328,51.27557919898735,1370.0021748477593,6.915489126413377e-05,-2.2833804450783646e-05,0.0,0.0,0.0,0.0,341.6103260869565,70.0,0.0,255.0,0.0
29.300000000000274,35.72680295239595,51.2755780659023,1370.0021742675453,6.915489132097719e-05,-2.2833804337096808e-05,0.0,5.684341886080801e-13,2.2737367544323206e-12,0.0,341.60152173913036,70.0,0.0,255.0,0.0
29.350000000000275,35.726806419769694,51.27557693281545,1370.002173683606,6.915489132097719e-05,-2.283380422340997e-05,0.0,0.0,0.0,0.0,341.5927173913043,70.0,0.0,255.0,0.0
29.400000000000276,35.726809887144526,51.27557579972676,1370.0021730996668,6.915489132097719e-05,-2.2833804337096808e-05,0.0,0.0,-1.1368683772161603e-12,0.0,341.5839130434782,70.0,0.0,255.0,0.0
29.450000000000276,35.72681335452044,51.275574666636274,1370.002172516659,6.915489132097719e-05,-2.2833804337096808e-05,0.0,-5.684341886080801e-13,0.0,0.0,341.57510869565215,70.0,0.0,255.0,0.0
29.500000000000277,35.7268168218974,51.27557353354397,1370.0021719355136,6.915489126413377e-05,-2.2833804337096808e-05,0.0,0.0,-1.1368683772161603e-12,0.0,341.566304347826,70.0,0.0,255.0,0.0
29.550000000000278,35.726820289275466,51.27557240044985,1370.0021713525057,6.915489132097719e-05,-2.2833804450783646e-05,0.0,5.684341886080801e-13,0.0,0.0,341.55749999999995,70.0,0.0,255.0,0.0
29.60000000000028,35.726823756654596,51.27557126735391,1370.0021707694978,6.915489132097719e-05,-2.2833804337096808e-05,0.0,-5.684341886080801e-13,1.1368683772161603e-12,0.0,341.5486956521739,70.0,0.0,255.0,0.0
29.65000000000028,35.726827224034814,51.27557013425617,1370.0021701864898,6.915489126413377e-05,-2.2833804337096808e-05,0.0,0.0,0.0,0.0,341.5398913043478,70.0,0.0,255.0,0.0
29.70000000000028,35.726830691416104,51.275569001156605,1370.0021696044132,6.915489132097719e-05,-2.2833804337096808e-05,0.0,5.684341886080801e-13,0.0,0.0,341.5310869565217,70.0,0.0,255.0,0.0
29.75000000000028,35.72683415879847,51.27556786805521,1370.0021690214053,6.915489132097719e-05,-2.2833804337096808e-05,0.0,0.0,0.0,0.0,341.5222826086956,70.0,0.0,255.0,0.0
29.80000000000028,35.7268376261819,51.27556673495202,1370.00216844026,6.915489132097719e-05,-2.2833804337096808e-05,0.0,0.0,0.0,0.0,341.51347826086953,70.0,0.0,255.0,0.0
29.850000000000282,35.726841093566414,51.27556560184701,1370.002167857252,6.915489132097719e-05,-2.2833804337096808e-05,0.0,-5.684341886080801e-13,-1.1368683772161603e-12,0.0,341.5046739130434,70.0,0.0,255.0,0.0
29.900000000000283,35.726844560951996,51.275564468740185,1370.0021672742441,6.915489126413377e-05,-2.2833804450783646e-05,0.0,0.0,0.0,0.0,341.49586956521733,70.0,0.0,255.0,0.0
29.950000000000284,35.726848028338665,51.27556333563153,1370.0021666921675,6.915489132097719e-05,-2.2833804337096808e-05,0.0,5.684341886080801e-13,1.1368683772161603e-12,0.0,341.48706521739126,70.0,0.0,255.0,0.0
30.000000000000284,35.7268514957264,51.27556220252108,1370.002166110091,6.915489132097719e-05,-2.2833804337096808e-05,0.0,-5.684341886080801e-13,0.0,0.0,341.4782608695652,70.0,0.0,255.0,0.0
30.050000000000285,35.72685496311522,51.27556106940879,1370.002165527083,6.915489126413377e-05,-2.2833804337096808e-05,0.0,-5.684341886080801e-13,0.0,0.0,341.46945652173906,70.0,0.0,255.0,0.0
30.100000000000286,35.72685843050509,51.275559936294705,1370.0021649450064,6.915489126413377e-05,-2.2833804337096808e-05,0.0,5.684341886080801e-13,0.0,0.0,341.460652173913,70.0,0.0,255.0,0.0
30.150000000000286,35.72686189789606,51.27555880317879,1370.002164363861,6.915489132097719e-05,-2.2833804337096808e-05,0.0,0.0,0.0,0.0,341.4518478260869,70.0,0.0,255.0,0.0
30.200000000000287,35.726865365288106,51.27555767006106,1370.0021637808532,6.915489126413377e-05,-2.2833804337096808e-05,0.0,0.0,0.0,0.0,341.44304347826085,70.0,0.0,255.0,0.0
30.250000000000288,35.72686883268121,51.27555653694151,1370.0021631997079,6.915489132097719e-05,-2.2833804337096808e-05,0.0,5.684341886080801e-13,0.0,0.0,341.4342391304347,70.0,0.0,255.0,0.0
30.30000000000029,35.726872300075385,51.27555540382015,1370.0021626176313,6.915489132097719e-05,-2.2833804337096808e-05,0.0,0.0,-1.1368683772161603e-12,0.0,341.42543478260865,70.0,0.0,255.0,0.0
30.35000000000029,35.72687576747063,51.275554270696965,1370.002162036486,6.915489132097719e-05,-2.2833804450783646e-05,0.0,0.0,0.0,0.0,341.4166304347826,70.0,0.0,255.0,0.0
30.40000000000029,35.726879234866985,51.27555313757196,1370.0021614544094,6.915489132097719e-05,-2.2833804337096808e-05,0.0,-5.684341886080801e-13,1.1368683772161603e-12,0.0,341.40782608695645,70.0,0.0,255.0,0.0
30.45000000000029,35.726882702264376,51.27555200444514,1370.002160873264,6.915489126413377e-05,-2.2833804337096808e-05,0.0,0.0,0.0,0.0,341.3990217391304,70.0,0.0,255.0,0.0
30.50000000000029,35.72688616966285,51.27555087131651,1370.0021602921188,6.915489132097719e-05,-2.2833804337096808e-05,0.0,5.684341886080801e-13,1.1368683772161603e-12,0.0,341.3902173913043,70.0,0.0,255.0,0.0
30.550000000000292,35.726889637062385,51.275549738186044,1370.0021597109735,6.915489132097719e-05,-2.283380422340997e-05,0.0,-5.684341886080801e-13,0.0,0.0,341.38141304347823,70.0,0.0,255.0,0.0
30.600000000000293,35.726893104463024,51.27554860505378,1370.0021591270342,6.915489126413377e-05,-2.2833804337096808e-05,0.0,0.0,-2.2737367544323206e-12,0.0,341.3726086956521,70.0,0.0,255.0,0.0
30.650000000000293,35.7268965718647,51.27554747191968,1370.002158545889,6.915489132097719e-05,-2.2833804450783646e-05,0.0,5.684341886080801e-13,0.0,0.0,341.36380434782603,70.0,0.0,255.0,0.0
30.700000000000294,35.72690003926746,51.27554633878377,1370.002157965675,6.915489132097719e-05,-2.2833804337096808e-05,0.0,0.0,1.1368683772161603e-12,0.0,341.35499999999996,70.0,0.0,255.0,0.0
30.750000000000295,35.72690350667129,51.27554520564603,1370.0021573845297,6.915489132097719e-05,-2.2833804337096808e-05,0.0,0.0,-1.1368683772161603e-12,0.0,341.3461956521739,70.0,0.0,255.0,0.0
30.800000000000296,35.72690697407621,51.27554407250648,1370.0021568033844,6.915489132097719e-05,-2.2833804450783646e-05,0.0,-5.684341886080801e-13,0.0,0.0,341.33739130434776,70.0,0.0,255.0,0.0
30.850000000000296,35.72691044148218,51.2755429393651,1370.0021562194452,6.915489126413377e-05,-2.2833804337096808e-05,0.0,0.0,2.2737367544323206e-12,0.0,341.3285869565217,70.0,0.0,255.0,0.0
30.900000000000297,35.72691390888923,51.275541806221916,1370.0021556392312,6.915489132097719e-05,-2.283380422340997e-05,0.0,5.684341886080801e-13,0.0,0.0,341.3197826086956,70.0,0.0,255.0,0.0
30.950000000000298,35.72691737629736,51.2755406730769,1370.002155058086,6.915489132097719e-05,-2.2833804337096808e-05,0.0,-5.684341886080801e-13,-1.1368683772161603e-12,0.0,341.3109782608695,70.0,0.0,255.0,0.0
31.0000000000003,35.726920843706544,51.27553953993006,1370.002154477872,6.915489126413377e-05,-2.2833804337096808e-05,0.0,0.0,0.0,0.0,341.3021739130434,70.0,0.0,255.0,0.0
31.0500000000003,35.726924311116775,51.275538406781415,1370.0021538967267,6.915489132097719e-05,-2.2833804337096808e-05,0.0,5.684341886080801e-13,-1.1368683772161603e-12,0.0,341.29336956521735,70.0,0.0,255.0,0.0
31.1000000000003,35.72692777852812,51.275537273630924,1370.00215331465,6.915489132097719e-05,-2.2833804450783646e-05,0.0,0.0,0.0,0.0,341.2845652173913,70.0,0.0,255.0,0.0
31.1500000000003,35.72693124594051,51.27553614047862,1370.0021527353674,6.915489132097719e-05,-2.2833804337096808e-05,0.0,0.0,1.1368683772161603e-12,0.0,341.27576086956515,70.0,0.0,255.0,0.0
31.2000000000003,35.72693471335397,51.275535007324514,1370.0021521542221,6.915489132097719e-05,-2.2833804337096808e-05,0.0,-5.684341886080801e-13,0.0,0.0,341.2669565217391,70.0,0.0,255.0,0.0
31.250000000000302,35.72693818076851,51.27553387416858,1370.0021515740082,6.915489126413377e-05,-2.2833804337096808e-05,0.0,0.0,0.0,0.0,341.258152173913,70.0,0.0,255.0,0.0
31.300000000000303,35.726941648184116,51.27553274101081,1370.0021509919316,6.915489132097719e-05,-2.2833804337096808e-05,0.0,5.684341886080801e-13,0.0,0.0,341.24934782608693,70.0,0.0,255.0,0.0
31.350000000000303,35.726945115600785,51.27553160785123,1370.002150412649,6.915489132097719e-05,-2.2833804337096808e-05,0.0,-5.684341886080801e-13,0.0,0.0,341.2405434782608,70.0,0.0,255.0,0.0
31.400000000000304,35.72694858301853,51.27553047468982,1370.0021498287097,6.915489126413377e-05,-2.2833804337096808e-05,0.0,0.0,0.0,0.0,341.23173913043473,70.0,0.0,255.0,0.0
31.450000000000305,35.72695205043734,51.2755293415266,1370.002149249427,6.915489132097719e-05,-2.2833804337096808e-05,0.0,5.684341886080801e-13,0.0,0.0,341.22293478260866,70.0,0.0,255.0,0.0
31.500000000000306,35.72695551785721,51.27552820836154,1370.0021486701444,6.915489132097719e-05,-2.2833804337096808e-05,0.0,-1.1368683772161603e-12,-1.1368683772161603e-12,0.0,341.21413043478253,70.0,0.0,255.0,0.0
31.550000000000306,35.72695898527816,51.27552707519467,1370.0021480908617,6.915489120729035e-05,-2.2833804450783646e-05,0.0,0.0,0.0,0.0,341.20532608695646,70.0,0.0,255.0,0.0
31.600000000000307,35.72696245270017,51.275525942025965,1370.0021475078538,6.915489132097719e-05,-2.2833804337096808e-05,0.0,1.1368683772161603e-12,1.1368683772161603e-12,0.0,341.1965217391304,70.0,0.0,255.0,0.0
31.650000000000308,35.72696592012325,51.27552480885544,1370.0021469295025,6.915489132097719e-05,-2.2833804337096808e-05,0.0,0.0,0.0,0.0,341.1877173913043,70.0,0.0,255.0,0.0
31.70000000000031,35.72696938754739,51.275523675683104,1370.0021463474259,6.915489132097719e-05,-2.2833804337096808e-05,0.0,0.0,0.0,0.0,341.1789130434782,70.0,0.0,255.0,0.0
31.75000000000031,35.7269728549726,51.27552254250893,1370.0021457690746,6.915489132097719e-05,-2.2833804337096808e-05,0.0,-5.684341886080801e-13,0.0,0.0,341.1701086956521,70.0,0.0,255.0,0.0
31.80000000000031,35.7269763223989,51.27552140933294,1370.0021451879293,6.915489126413377e-05,-2.2833804337096808e-05,0.0,0.0,0.0,0.0,341.16130434782605,70.0,0.0,255.0,0.0
31.85000000000031,35.72697978982623,51.27552027615513,1370.0021446077153,6.915489132097719e-05,-2.2833804337096808e-05,0.0,5.684341886080801e-13,-1.1368683772161603e-12,0.0,341.1525,70.0,0.0,255.0,0.0
31.90000000000031,35.726983257254645,51.27551914297548,1370.00214402657,6.915489132097719e-05,-2.2833804450783646e-05,0.0,-5.684341886080801e-13,0.0,0.0,341.14369565217385,70.0,0.0,255.0,0.0
31.950000000000312,35.726986724684124,51.27551800979402,1370.00214344915,6.915489126413377e-05,-2.2833804337096808e-05,0.0,0.0,1.1368683772161603e-12,1.8189894035458306e-11,341.1348913043478,70.0,0.0,255.0,0.0
32.00000000000031,35.72699019211467,51.27551687661073,1370.0021428680047,6.915489132097719e-05,-2.2833804337096808e-05,1.8189894035458565e-12,0.0,0.0,1.818989403545766e-11,341.1260869565217,70.0,0.0,255.0,0.0
32.05000000000031,35.72699365954628,51.275515743425615,1370.0021422877908,6.915489126413377e-05,-2.2833804337096808e-05,1.8189894035458565e-12,0.0,0.0,-1.818989403545572e-11,341.1172826086956,70.0,0.0,255.0,0.0
32.100000000000314,35.72699712697896,51.27551461023867,1370.0021417075768,6.915489132097719e-05,-2.2833804337096808e-05,0.0,5.684341886080801e-13,0.0,-3.637978807091403e-11,341.1084782608695,70.0,0.0,255.0,0.0
32.15000000000032,35.727000594412694,51.27551347704992,1370.0021411273628,6.915489132097719e-05,-2.2833804337096808e-05,-1.8189894035458565e-12,0.0,0.0,5.169878828456276e-24,341.09967391304343,70.0,0.0,255.0,0.0
32.200000000000315,35.7270040618475,51.27551234385932,1370.0021405471489,6.915489132097719e-05,-2.2833804337096808e-05,0.0,0.0,0.0,3.63797880709192e-11,341.09086956521736,70.0,0.0,255.0,0.0
32.25000000000031,35.72700752928336,51.27551121066691,1370.0021399678662,6.915489132097719e-05,-2.2833804337096808e-05,1.8189894035458565e-12,0.0,0.0,5.169878828456276e-24,341.08206521739123,70.0,0.0,255.0,0.0
32.30000000000032,35.727010996720296,51.27551007747268,1370.002139389515,6.915489132097719e-05,-2.2833804337096808e-05,0.0,0.0,-1.1368683772161603e-12,-3.637978807091403e-11,341.07326086956516,70.0,0.0,255.0,0.0
32.35000000000032,35.72701446415831,51.2755089442766,1370.0021388083696,6.915489132097719e-05,-2.2833804450783646e-05,-1.8189894035458565e-12,0.0,0.0,5.169878828456276e-24,341.0644565217391,70.0,0.0,255.0,0.0
32.40000000000032,35.72701793159736,51.275507811078704,1370.002138229087,6.915489132097719e-05,-2.2833804337096808e-05,0.0,-5.684341886080801e-13,2.2737367544323206e-12,3.63797880709192e-11,341.055652173913,70.0,0.0,255.0,0.0
32.450000000000315,35.727021399037476,51.275506677878994,1370.0021376507357,6.915489126413377e-05,-2.283380422340997e-05,1.8189894035458565e-12,0.0,-1.1368683772161603e-12,5.169878828456276e-24,341.0468478260869,70.0,0.0,255.0,0.0
32.50000000000032,35.72702486647867,51.27550554467745,1370.0021370695904,6.915489132097719e-05,-2.2833804450783646e-05,0.0,5.684341886080801e-13,-1.1368683772161603e-12,-3.637978807091403e-11,341.0380434782608,70.0,0.0,255.0,0.0
32.550000000000324,35.72702833392093,51.275504411474074,1370.0021364921704,6.915489132097719e-05,-2.2833804337096808e-05,-1.8189894035458565e-12,0.0,1.1368683772161603e-12,5.169878828456276e-24,341.02923913043475,70.0,0.0,255.0,0.0
32.60000000000032,35.72703180136424,51.27550327826887,1370.0021359119564,6.915489132097719e-05,-2.2833804337096808e-05,0.0,0.0,-1.1368683772161603e-12,3.63797880709192e-11,341.0204347826086,70.0,0.0,255.0,0.0
32.65000000000032,35.72703526880862,51.27550214506184,1370.0021353326738,6.915489132097719e-05,-2.2833804450783646e-05,1.8189894035458565e-12,0.0,1.1368683772161603e-12,5.169878828456276e-24,341.01163043478255,70.0,0.0,255.0,0.0
32.70000000000032,35.72703873625406,51.27550101185299,1370.0021347524598,6.915489132097719e-05,-2.283380422340997e-05,0.0,0.0,1.1368683772161603e-12,-3.637978807091403e-11,341.0028260869565,70.0,0.0,255.0,0.0
32.75000000000033,35.727042203700556,51.27549987864231,1370.0021341731772,6.915489132097719e-05,-2.2833804337096808e-05,-1.8189894035458565e-12,0.0,-2.2737367544323206e-12,5.169878828456276e-24,340.9940217391304,70.0,0.0,255.0,0.0
32.800000000000324,35.72704567114812,51.2754987454298,1370.0021335948259,6.915489132097719e-05,-2.2833804450783646e-05,0.0,-5.684341886080801e-13,0.0,3.63797880709192e-11,340.9852173913043,70.0,0.0,255.0,0.0
32.85000000000032,35.72704913859675,51.27549761221545,1370.0021330155432,6.915489126413377e-05,-2.2833804337096808e-05,1.8189894035458565e-12,0.0,1.1368683772161603e-12,5.169878828456276e-24,340.9764130434782,70.0,0.0,255.0,0.0
32.900000000000325,35.727052606046435,51.27549647899929,1370.002132437192,6.915489132097719e-05,-2.2833804337096808e-05,0.0,5.684341886080801e-13,0.0,-3.637978807091403e-11,340.96760869565213,70.0,0.0,255.0,0.0
32.95000000000033,35.72705607349719,51.2754953457813,1370.0021318579093,6.915489132097719e-05,-2.2833804337096808e-05,-1.8189894035458565e-12,-5.684341886080801e-13,0.0,5.169878828456276e-24,340.958804347826,70.0,0.0,255.0,0.0
33.00000000000033,35.72705954094899,51.275494212561476,1370.002131279558,6.915489126413377e-05,-2.2833804337096808e-05,0.0,0.0,0.0,3.63797880709192e-11,340.94999999999993,70.0,0.0,255.0,0.0
33.050000000000324,35.72706300840185,51.275493079339824,1370.0021307002753,6.915489132097719e-05,-2.2833804337096808e-05,1.8189894035458565e-12,0.0,0.0,5.169878828456276e-24,340.94119565217386,70.0,0.0,255.0,0.0
33.10000000000033,35.72706647585579,51.27549194611634,1370.002130121924,6.915489126413377e-05,-2.2833804337096808e-05,0.0,0.0,0.0,-3.637978807091403e-11,340.9323913043478,70.0,0.0,255.0,0.0
33.15000000000033,35.72706994331078,51.27549081289103,1370.0021295435727,6.915489132097719e-05,-2.2833804337096808e-05,-1.8189894035458565e-12,0.0,0.0,5.169878828456276e-24,340.92358695652166,70.0,0.0,255.0,0.0
33.20000000000033,35.72707341076684,51.27548967966389,1370.0021289633587,6.915489126413377e-05,-2.2833804337096808e-05,0.0,-5.684341886080801e-13,0.0,3.63797880709192e-11,340.9147826086956,70.0,0.0,255.0,0.0
33.25000000000033,35.72707687822395,51.275488546434914,1370.0021283859387,6.915489126413377e-05,-2.2833804337096808e-05,1.8189894035458565e-12,5.684341886080801e-13,0.0,5.169878828456276e-24,340.9059782608695,70.0,0.0,255.0,0.0
33.30000000000033,35.72708034568212,51.27548741320412,1370.0021278075874,6.915489132097719e-05,-2.2833804337096808e-05,0.0,5.684341886080801e-13,0.0,-3.637978807091403e-11,340.89717391304345,70.0,0.0,255.0,0.0
33.350000000000335,35.72708381314134,51.27548627997149,1370.002127229236,6.915489132097719e-05,-2.2833804337096808e-05,-1.8189894035458565e-12,0.0,0.0,5.169878828456276e-24,340.8883695652173,70.0,0.0,255.0,0.0
33.40000000000033,35.72708728060164,51.27548514673703,1370.0021266499534,6.915489132097719e-05,-2.2833804337096808e-05,0.0,0.0,-1.1368683772161603e-12,3.63797880709192e-11,340.87956521739125,70.0,0.0,255.0,0.0
33.45000000000033,35.727090748062984,51.27548401350073,1370.002126071602,6.915489132097719e-05,-2.2833804450783646e-05,1.8189894035458565e-12,-5.684341886080801e-13,0.0,5.169878828456276e-24,340.8707608695652,70.0,0.0,255.0,0.0
33.500000000000334,35.727094215525405,51.275482880262615,1370.0021254951134,6.915489126413377e-05,-2.2833804337096808e-05,0.0,0.0,1.1368683772161603e-12,-3.637978807091403e-11,340.8619565217391,70.0,0.0,255.0,0.0
33.55000000000034,35.72709768298886,51.27548174702267,1370.0021249148995,6.915489132097719e-05,-2.2833804337096808e-05,-1.8189894035458565e-12,0.0,-1.1368683772161603e-12,5.169878828456276e-24,340.853152173913,70.0,0.0,255.0,0.0
33.600000000000335,35.72710115045339,51.27548061378088,1370.0021243365481,6.915489126413377e-05,-2.2833804450783646e-05,0.0,-5.684341886080801e-13,1.1368683772161603e-12,3.63797880709192e-11,340.8443478260869,70.0,0.0,255.0,0.0
33.65000000000033,35.727104617918975,51.27547948053727,1370.0021237591282,6.915489126413377e-05,-2.283380422340997e-05,1.8189894035458565e-12,5.684341886080801e-13,1.1368683772161603e-12,5.169878828456276e-24,340.83554347826083,70.0,0.0,255.0,0.0
33.70000000000034,35.727108085385616,51.27547834729183,1370.0021231826395,6.915489132097719e-05,-2.2833804337096808e-05,0.0,5.684341886080801e-13,-2.2737367544323206e-12,-3.637978807091403e-11,340.8267391304347,70.0,0.0,255.0,0.0
33.75000000000034,35.72711155285332,51.27547721404455,1370.0021226042882,6.915489132097719e-05,-2.2833804450783646e-05,-1.8189894035458565e-12,0.0,0.0,5.169878828456276e-24,340.81793478260863,70.0,0.0,255.0,0.0
33.80000000000034,35.72711502032208,51.275476080795436,1370.0021220259368,6.915489132097719e-05,-2.2833804337096808e-05,0.0,0.0,1.1368683772161603e-12,3.63797880709192e-11,340.80913043478256,70.0,0.0,255.0,0.0
33.850000000000335,35.72711848779189,51.2754749475445,1370.0021214466542,6.915489132097719e-05,-2.2833804337096808e-05,1.8189894035458565e-12,-5.684341886080801e-13,0.0,5.169878828456276e-24,340.8003260869565,70.0,0.0,255.0,0.0
33.90000000000034,35.72712195526276,51.27547381429173,1370.0021208692342,6.915489126413377e-05,-2.2833804337096808e-05,0.0,0.0,0.0,-3.637978807091403e-11,340.79152173913036,70.0,0.0,255.0,0.0
33.950000000000344,35.72712542273468,51.27547268103712,1370.0021202908829,6.915489132097719e-05,-2.2833804337096808e-05,-1.8189894035458565e-12,0.0,0.0,5.169878828456276e-24,340.7827173913043,70.0,0.0,255.0,0.0
34.00000000000034,35.727128890207666,51.27547154778069,1370.002119713463,6.915489126413377e-05,-2.2833804337096808e-05,0.0,-5.684341886080801e-13,0.0,3.63797880709192e-11,340.7739130434782,70.0,0.0,255.0,0.0
34.05000000000034,35.72713235768171,51.27547041452242,1370.0021191341802,6.915489126413377e-05,-2.2833804337096808e-05,1.8189894035458565e-12,5.684341886080801e-13,0.0,5.169878828456276e-24,340.76510869565215,70.0,0.0,255.0,0.0
34.10000000000034,35.72713582515681,51.2754692812623,1370.0021185595542,6.915489132097719e-05,-2.2833804337096808e-05,0.0,5.684341886080801e-13,0.0,-3.637978807091403e-11,340.756304347826,70.0,0.0,255.0,0.0
34.15000000000035,35.727139292632955,51.27546814800037,1370.0021179802716,6.915489132097719e-05,-2.2833804337096808e-05,-1.8189894035458565e-12,0.0,0.0,5.169878828456276e-24,340.74749999999995,70.0,0.0,255.0,0.0
34.200000000000344,35.72714276011016,51.2754670147366,1370.002117403783,6.915489132097719e-05,-2.2833804337096808e-05,0.0,0.0,0.0,3.63797880709192e-11,340.7386956521739,70.0,0.0,255.0,0.0
34.25000000000034,35.72714622758842,51.27546588147099,1370.002116826363,6.915489132097719e-05,-2.2833804337096808e-05,1.8189894035458565e-12,-5.684341886080801e-13,0.0,5.169878828456276e-24,340.72989130434775,70.0,0.0,255.0,0.0
34.300000000000345,35.72714969506775,51.27546474820356,1370.0021162480116,6.915489126413377e-05,-2.2833804337096808e-05,0.0,0.0,-1.1368683772161603e-12,-3.637978807091403e-11,340.7210869565217,70.0,0.0,255.0,0.0
34.35000000000035,35.72715316254812,51.27546361493428,1370.002115671523,6.915489132097719e-05,-2.2833804450783646e-05,-1.8189894035458565e-12,0.0,0.0,5.169878828456276e-24,340.7122826086956,70.0,0.0,255.0,0.0
34.40000000000035,35.72715663002954,51.275462481663176,1370.002115094103,6.915489126413377e-05,-2.2833804337096808e-05,0.0,-1.1368683772161603e-12,2.2737367544323206e-12,3.63797880709192e-11,340.70347826086953,70.0,0.0,255.0,0.0
34.450000000000344,35.72716009751203,51.275461348390245,1370.002114516683,6.915489120729035e-05,-2.283380422340997e-05,1.8189894035458565e-12,5.684341886080801e-13,-1.1368683772161603e-12,5.169878828456276e-24,340.6946739130434,70.0,0.0,255.0,0.0
34.50000000000035,35.72716356499556,51.27546021511546,1370.002113939263,6.915489132097719e-05,-2.2833804450783646e-05,0.0,1.1368683772161603e-12,-1.1368683772161603e-12,-3.637978807091403e-11,340.68586956521733,70.0,0.0,255.0,0.0
34.55000000000035,35.727167032480146,51.275459081838854,1370.002113361843,6.915489132097719e-05,-2.2833804337096808e-05,-1.8189894035458565e-12,0.0,2.2737367544323206e-12,5.169878828456276e-24,340.67706521739126,70.0,0.0,255.0,0.0
34.60000000000035,35.72717049996578,51.27545794856041,1370.0021127862856,6.915489132097719e-05,-2.283380422340997e-05,0.0,-5.684341886080801e-13,-1.1368683772161603e-12,3.63797880709192e-11,340.66826086956513,70.0,0.0,255.0,0.0
34.65000000000035,35.727173967452494,51.27545681528013,1370.0021122088656,6.915489126413377e-05,-2.2833804450783646e-05,1.8189894035458565e-12,-5.684341886080801e-13,-1.1368683772161603e-12,5.169878828456276e-24,340.65945652173906,70.0,0.0,255.0,0.0
34.70000000000035,35.72717743494024,51.275455681998004,1370.002111632377,6.915489126413377e-05,-2.2833804337096808e-05,0.0,5.684341886080801e-13,1.1368683772161603e-12,-3.637978807091403e-11,340.650652173913,70.0,0.0,255.0,0.0
34.750000000000355,35.727180902429055,51.27545454871406,1370.002111054957,6.915489132097719e-05,-2.2833804337096808e-05,-1.8189894035458565e-12,0.0,-1.1368683772161603e-12,5.169878828456276e-24,340.6418478260869,70.0,0.0,255.0,0.0
34.80000000000035,35.727184369918895,51.27545341542827,1370.0021104784682,6.915489126413377e-05,-2.2833804450783646e-05,0.0,0.0,1.1368683772161603e-12,3.63797880709192e-11,340.6330434782608,70.0,0.0,255.0,0.0
34.85000000000035,35.72718783740982,51.27545228214065,1370.0021099010482,6.915489132097719e-05,-2.283380422340997e-05,1.8189894035458565e-12,5.684341886080801e-13,1.1368683772161603e-12,5.169878828456276e-24,340.6242391304347,70.0,0.0,255.0,0.0
34.900000000000354,35.72719130490177,51.27545114885119,1370.0021093245596,6.915489132097719e-05,-2.2833804337096808e-05,0.0,0.0,-2.2737367544323206e-12,-3.637978807091403e-11,340.61543478260865,70.0,0.0,255.0,0.0
34.95000000000036,35.72719477239478,51.27545001555989,1370.002108748071,6.915489132097719e-05,-2.2833804450783646e-05,-1.8189894035458565e-12,0.0,0.0,5.169878828456276e-24,340.6066304347826,70.0,0.0,255.0,0.0
35.000000000000355,35.72719823988884,51.275448882266765,1370.0021081725135,6.915489132097719e-05,-2.2833804337096808e-05,0.0,-5.684341886080801e-13,1.1368683772161603e-12,3.63797880709192e-11,340.59782608695645,70.0,0.0,255.0,0.0
35.05000000000035,35.72720170738397,51.27544774897179,1370.0021075960249,6.915489126413377e-05,-2.2833804337096808e-05,1.8189894035458565e-12,-5.684341886080801e-13,0.0,5.169878828456276e-24,340.5890217391304,70.0,0.0,255.0,0.0
35.10000000000036,35.72720517488014,51.275446615674994,1370.0021070195362,6.915489126413377e-05,-2.2833804337096808e-05,0.0,5.684341886080801e-13,0.0,-3.637978807091403e-11,340.5802173913043,70.0,0.0,255.0,0.0
35.15000000000036,35.727208642377356,51.27544548237635,1370.0021064411849,6.915489132097719e-05,-2.2833804337096808e-05,-1.8189894035458565e-12,0.0,0.0,5.169878828456276e-24,340.5714130434782,70.0,0.0,255.0,0.0
35.20000000000036,35.72721210987563,51.27544434907587,1370.0021058656275,6.915489126413377e-05,-2.2833804337096808e-05,0.0,0.0,0.0,3.63797880709192e-11,340.5626086956521,70.0,0.0,255.0,0.0
35.250000000000355,35.727215577374956,51.27544321577354,1370.0021052900702,6.915489132097719e-05,-2.2833804337096808e-05,1.8189894035458565e-12,5.684341886080801e-13,0.0,5.169878828456276e-24,340.55380434782603,70.0,0.0,255.0,0.0
35.30000000000036,35.727219044875326,51.27544208246939,1370.0021047135815,6.915489132097719e-05,-2.2833804337096808e-05,0.0,0.0,0.0,-3.637978807091403e-11,340.54499999999996,70.0,0.0,255.0,0.0
35.350000000000364,35.727222512376756,51.27544094916339,1370.0021041370928,6.915489132097719e-05,-2.2833804337096808e-05,-1.8189894035458565e-12,0.0,0.0,5.169878828456276e-24,340.53619565217383,70.0,0.0,255.0,0.0
35.40000000000036,35.72722597987923,51.27543981585556,1370.0021035596728,6.915489132097719e-05,-2.2833804337096808e-05,0.0,-5.684341886080801e-13,-1.1368683772161603e-12,3.63797880709192e-11,340.52739130434776,70.0,0.0,255.0,0.0
35.45000000000036,35.72722944738275,51.27543868254588,1370.0021029850468,6.915489126413377e-05,-2.2833804450783646e-05,1.8189894035458565e-12,-5.684341886080801e-13,0.0,5.169878828456276e-24,340.5185869565217,70.0,0.0,255.0,0.0
35.50000000000036,35.72723291488732,51.27543754923438,1370.0021024085581,6.915489126413377e-05,-2.2833804337096808e-05,0.0,5.684341886080801e-13,1.1368683772161603e-12,-3.637978807091403e-11,340.5097826086956,70.0,0.0,255.0,0.0
35.55000000000037,35.72723638239293,51.27543641592103,1370.002101833932,6.915489132097719e-05,-2.2833804337096808e-05,-1.8189894035458565e-12,0.0,-1.1368683772161603e-12,5.169878828456276e-24,340.5009782608695,70.0,0.0,255.0,0.0
35.600000000000364,35.727239849899604,51.27543528260585,1370.002101256512,6.915489126413377e-05,-2.2833804450783646e-05,0.0,0.0,1.1368683772161603e-12,3.63797880709192e-11,340.4921739130434,70.0,0.0,255.0,0.0
35.65000000000036,35.72724331740734,51.27543414928881,1370.0021006800234,6.915489132097719e-05,-2.283380422340997e-05,1.8189894035458565e-12,5.684341886080801e-13,1.1368683772161603e-12,5.169878828456276e-24,340.48336956521734,70.0,0.0,255.0,0.0
35.700000000000365,35.72724678491608,51.27543301596996,1370.0021001063287,6.915489132097719e-05,-2.2833804337096808e-05,0.0,0.0,-2.2737367544323206e-12,-3.637978807091403e-11,340.4745652173912,70.0,0.0,255.0,0.0
35.75000000000037,35.727250252425904,51.275431882649244,1370.00209952984,6.915489132097719e-05,-2.2833804450783646e-05,-1.8189894035458565e-12,0.0,1.1368683772161603e-12,5.169878828456276e-24,340.46576086956514,70.0,0.0,255.0,0.0
35.80000000000037,35.727253719936776,51.275430749326695,1370.0020989533514,6.915489132097719e-05,-2.283380422340997e-05,0.0,-5.684341886080801e-13,1.1368683772161603e-12,3.63797880709192e-11,340.4569565217391,70.0,0.0,255.0,0.0
35.850000000000364,35.72725718744869,51.27542961600231,1370.0020983787253,6.915489126413377e-05,-2.2833804337096808e-05,1.8189894035458565e-12,-1.1368683772161603e-12,-2.2737367544323206e-12,5.169878828456276e-24,340.448152173913,70.0,0.0,255.0,0.0
35.90000000000037,35.72726065496165,51.275428482676084,1370.002097803168,6.915489120729035e-05,-2.2833804450783646e-05,0.0,5.684341886080801e-13,0.0,-3.637978807091403e-11,340.4393478260869,70.0,0.0,255.0,0.0
35.95000000000037,35.72726412247565,51.275427349348014,1370.0020972266793,6.915489132097719e-05,-2.2833804337096808e-05,-1.8189894035458565e-12,1.1368683772161603e-12,1.1368683772161603e-12,5.169878828456276e-24,340.4305434782608,70.0,0.0,255.0,0.0
36.00000000000037,35.72726758999071,51.275426216018126,1370.0020966501907,6.915489132097719e-05,-2.2833804337096808e-05,0.0,0.0,0.0,3.63797880709192e-11,340.42173913043473,70.0,0.0,255.0,0.0
36.05000000000037,35.72727105750681,51.27542508268637,1370.002096076496,6.915489132097719e-05,-2.2833804337096808e-05,1.8189894035458565e-12,0.0,0.0,5.169878828456276e-24,340.41293478260866,70.0,0.0,255.0,0.0
36.10000000000037,35.72727452502396,51.27542394935278,1370.0020955000073,6.915489132097719e-05,-2.2833804337096808e-05,0.0,0.0,0.0,-3.637978807091403e-11,340.40413043478253,70.0,0.0,255.0,0.0
36.150000000000375,35.727277992542156,51.275422816017354,1370.0020949263126,6.915489132097719e-05,-2.2833804337096808e-05,-1.8189894035458565e-12,0.0,0.0,5.169878828456276e-24,340.39532608695646,70.0,0.0,255.0,0.0
36.20000000000037,35.72728146006141,51.27542168268008,1370.0020943526179,6.915489132097719e-05,-2.2833804337096808e-05,0.0,-5.684341886080801e-13,0.0,3.63797880709192e-11,340.3865217391304,70.0,0.0,255.0,0.0
36.25000000000037,35.7272849275817,51.275420549340964,1370.0020937761292,6.915489126413377e-05,-2.2833804337096808e-05,1.8189894035458565e-12,0.0,0.0,5.169878828456276e-24,340.37771739130426,70.0,0.0,255.0,0.0
36.300000000000374,35.72728839510303,51.27541941600001,1370.0020932005718,6.915489132097719e-05,-2.2833804337096808e-05,0.0,5.684341886080801e-13,0.0,-3.637978807091403e-11,340.3689130434782,70.0,0.0,255.0,0.0
36.35000000000038,35.7272918626254,51.27541828265723,1370.0020926268771,6.915489132097719e-05,-2.2833804337096808e-05,-1.8189894035458565e-12,0.0,0.0,5.169878828456276e-24,340.3601086956521,70.0,0.0,255.0,0.0
36.400000000000375,35.72729533014885,51.275417149312574,1370.0020920503885,6.915489132097719e-05,-2.2833804337096808e-05,0.0,0.0,0.0,3.63797880709192e-11,340.35130434782604,70.0,0.0,255.0,0.0
36.45000000000037,35.72729879767332,51.275416015966115,1370.0020914766937,6.915489132097719e-05,-2.2833804337096808e-05,1.8189894035458565e-12,0.0,0.0,5.169878828456276e-24,340.3424999999999,70.0,0.0,255.0,0.0
36.50000000000038,35.72730226519883,51.27541488261778,1370.002090900205,6.915489132097719e-05,-2.2833804337096808e-05,0.0,0.0,0.0,-3.637978807091403e-11,340.33369565217384,70.0,0.0,255.0,0.0
36.55000000000038,35.72730573272539,51.275413749267614,1370.0020903265104,6.915489132097719e-05,-2.2833804337096808e-05,-1.8189894035458565e-12,0.0,0.0,5.169878828456276e-24,340.3248913043478,70.0,0.0,255.0,0.0
36.60000000000038,35.727309200252996,51.2754126159156,1370.0020897518843,6.915489132097719e-05,-2.2833804337096808e-05,0.0,-5.684341886080801e-13,-1.1368683772161603e-12,3.63797880709192e-11,340.3160869565217,70.0,0.0,255.0,0.0
36.650000000000375,35.727312667781646,51.27541148256175,1370.0020891781896,6.915489126413377e-05,-2.2833804450783646e-05,1.8189894035458565e-12,0.0,0.0,5.169878828456276e-24,340.3072826086956,70.0,0.0,255.0,0.0
36.70000000000038,35.727316135311334,51.275410349206055,1370.0020886026323,6.915489132097719e-05,-2.2833804337096808e-05,0.0,5.684341886080801e-13,1.1368683772161603e-12,-3.637978807091403e-11,340.2984782608695,70.0,0.0,255.0,0.0
36.750000000000384,35.72731960284207,51.275409215848526,1370.0020880289376,6.915489132097719e-05,-2.2833804337096808e-05,-1.8189894035458565e-12,0.0,-1.1368683772161603e-12,5.169878828456276e-24,340.28967391304343,70.0,0.0,255.0,0.0
36.80000000000038,35.72732307037386,51.275408082489136,1370.002087452449,6.915489132097719e-05,-2.2833804450783646e-05,0.0,0.0,1.1368683772161603e-12,3.63797880709192e-11,340.2808695652173,70.0,0.0,255.0,0.0
36.85000000000038,35.727326537906684,51.27540694912791,1370.0020868778229,6.915489132097719e-05,-2.283380422340997e-05,1.8189894035458565e-12,0.0,1.1368683772161603e-12,5.169878828456276e-24,340.27206521739123,70.0,0.0,255.0,0.0
36.90000000000038,35.72733000544055,51.27540581576484,1370.0020863050595,6.915489132097719e-05,-2.2833804337096808e-05,0.0,0.0,-2.2737367544323206e-12,-3.637978807091403e-11,340.26326086956516,70.0,0.0,255.0,0.0
36.95000000000039,35.72733347297546,51.27540468239993,1370.0020857295021,6.915489132097719e-05,-2.2833804450783646e-05,-1.8189894035458565e-12,0.0,1.1368683772161603e-12,5.169878828456276e-24,340.2544565217391,70.0,0.0,255.0,0.0
37.000000000000384,35.72733694051142,51.275403549033165,1370.0020851558074,6.915489132097719e-05,-2.283380422340997e-05,0.0,-5.684341886080801e-13,1.1368683772161603e-12,3.63797880709192e-11,340.24565217391296,70.0,0.0,255.0,0.0
37.05000000000038,35.72734040804841,51.27540241566457,1370.0020845811814,6.915489126413377e-05,-2.2833804337096808e-05,1.8189894035458565e-12,0.0,-2.2737367544323206e-12,5.169878828456276e-24,340.2368478260869,70.0,0.0,255.0,0.0
37.100000000000385,35.72734387558644,51.27540128229412,1370.002084008418,6.915489132097719e-05,-2.2833804450783646e-05,0.0,5.684341886080801e-13,0.0,-3.637978807091403e-11,340.2280434782608,70.0,0.0,255.0,0.0
37.15000000000039,35.72734734312552,51.275400148921825,1370.002083433792,6.915489132097719e-05,-2.2833804337096808e-05,-1.8189894035458565e-12,0.0,1.1368683772161603e-12,5.169878828456276e-24,340.21923913043474,70.0,0.0,255.0,0.0
37.20000000000039,35.72735081066565,51.275399015547684,1370.002082859166,6.915489132097719e-05,-2.2833804337096808e-05,0.0,0.0,0.0,3.63797880709192e-11,340.2104347826086,70.0,0.0,255.0,0.0
37.250000000000384,35.72735427820682,51.275397882171696,1370.00208228454,6.915489132097719e-05,-2.2833804337096808e-05,1.8189894035458565e-12,0.0,0.0,5.169878828456276e-24,340.20163043478254,70.0,0.0,255.0,0.0
37.30000000000039,35.72735774574902,51.27539674879387,1370.0020817108452,6.915489132097719e-05,-2.2833804337096808e-05,0.0,-5.684341886080801e-13,0.0,-3.637978807091403e-11,340.1928260869565,70.0,0.0,255.0,0.0
37.35000000000039,35.72736121329226,51.27539561541419,1370.0020811371505,6.915489126413377e-05,-2.2833804337096808e-05,-1.8189894035458565e-12,0.0,0.0,5.169878828456276e-24,340.18402173913034,70.0,0.0,255.0,0.0
37.40000000000039,35.727364680836544,51.275394482032674,1370.0020805643871,6.915489132097719e-05,-2.2833804337096808e-05,0.0,0.0,0.0,3.63797880709192e-11,340.1752173913043,70.0,0.0,255.0,0.0
37.45000000000039,35.72736814838187,51.2753933486493,1370.0020799906924,6.915489126413377e-05,-2.2833804337096808e-05,1.8189894035458565e-12,0.0,0.0,5.169878828456276e-24,340.1664130434782,70.0,0.0,255.0,0.0
37.50000000000039,35.72737161592824,51.275392215264084,1370.002079417929,6.915489132097719e-05,-2.2833804337096808e-05,0.0,5.684341886080801e-13,0.0,-3.637978807091403e-11,340.15760869565213,70.0,0.0,255.0,0.0
37.550000000000395,35.72737508347566,51.275391081877025,1370.0020788442343,6.915489132097719e-05,-2.2833804337096808e-05,-1.8189894035458565e-12,0.0,-1.1368683772161603e-12,5.169878828456276e-24,340.148804347826,70.0,0.0,255.0,0.0
37.60000000000039,35.727378551024096,51.27538994848812,1370.0020782696083,6.915489132097719e-05,-2.2833804450783646e-05,0.0,-5.684341886080801e-13,0.0,3.63797880709192e-11,340.13999999999993,70.0,0.0,255.0,0.0
37.65000000000039,35.727382018573586,51.27538881509736,1370.0020776949823,6.915489126413377e-05,-2.2833804337096808e-05,1.8189894035458565e-12,0.0,2.2737367544323206e-12,5.169878828456276e-24,340.13119565217386,70.0,0.0,255.0,0.0
37.700000000000394,35.727385486124106,51.275387681704764,1370.0020771231502,6.915489132097719e-05,-2.283380422340997e-05,0.0,1.1368683772161603e-12,-1.1368683772161603e-12,-3.637978807091403e-11,340.1223913043478,70.0,0.0,255.0,0.0
37.7500000000004,35.72738895367569,51.2753865483103,1370.0020765494555,6.91548913778206e-05,-2.2833804450783646e-05,-1.8189894035458565e-12,0.0,-1.1368683772161603e-12,5.169878828456276e-24,340.11358695652166,70.0,0.0,255.0,0.0
37.800000000000395,35.72739242122828,51.275385414914005,1370.0020759776235,6.915489132097719e-05,-2.2833804337096808e-05,0.0,-1.1368683772161603e-12,1.1368683772161603e-12,3.63797880709192e-11,340.1047826086956,70.0,0.0,255.0,0.0
37.85000000000039,35.72739588878193,51.27538428151586,1370.0020754029974,6.915489126413377e-05,-2.2833804337096808e-05,1.8189894035458565e-12,0.0,-1.1368683772161603e-12,5.169878828456276e-24,340.0959782608695,70.0,0.0,255.0,0.0
37.9000000000004,35.727399356336605,51.27538314811587,1370.002074830234,6.915489132097719e-05,-2.2833804450783646e-05,0.0,5.684341886080801e-13,0.0,-3.637978807091403e-11,340.0871739130434,70.0,0.0,255.0,0.0
37.9500000000004,35.727402823892334,51.27538201471402,1370.002074255608,6.915489132097719e-05,-2.2833804337096808e-05,-1.8189894035458565e-12,0.0,1.1368683772161603e-12,5.169878828456276e-24,340.0783695652173,70.0,0.0,255.0,0.0
38.0000000000004,35.72740629144909,51.27538088131034,1370.002073683776,6.915489132097719e-05,-2.2833804337096808e-05,0.0,-5.684341886080801e-13,0.0,3.63797880709192e-11,340.06956521739124,70.0,0.0,255.0,0.0
38.050000000000395,35.72740975900689,51.2753797479048,1370.00207310915,6.915489126413377e-05,-2.2833804337096808e-05,1.8189894035458565e-12,0.0,0.0,5.169878828456276e-24,340.0607608695652,70.0,0.0,255.0,0.0
38.1000000000004,35.72741322656572,51.275378614497406,1370.0020725373179,6.915489132097719e-05,-2.2833804337096808e-05,0.0,1.1368683772161603e-12,0.0,-3.637978807091403e-11,340.05195652173904,70.0,0.0,255.0,0.0
38.150000000000404,35.727416694125594,51.27537748108818,1370.0020719645545,6.91548913778206e-05,-2.2833804337096808e-05,-1.8189894035458565e-12,0.0,0.0,5.169878828456276e-24,340.043152173913,70.0,0.0,255.0,0.0
38.2000000000004,35.727420161686496,51.27537634767709,1370.002071391791,6.915489132097719e-05,-2.2833804337096808e-05,0.0,-1.1368683772161603e-12,0.0,3.63797880709192e-11,340.0343478260869,70.0,0.0,255.0,0.0
38.2500000000004,35.72742362924844,51.275375214264145,1370.0020708180964,6.915489126413377e-05,-2.2833804337096808e-05,1.8189894035458565e-12,0.0,0.0,5.169878828456276e-24,340.02554347826083,70.0,0.0,255.0,0.0
38.3000000000004,35.727427096811425,51.27537408084937,1370.0020702471957,6.915489132097719e-05,-2.2833804337096808e-05,0.0,5.684341886080801e-13,0.0,-3.637978807091403e-11,340.0167391304347,70.0,0.0,255.0,0.0
38.350000000000406,35.72743056437545,51.27537294743273,1370.0020696725696,6.915489132097719e-05,-2.2833804337096808e-05,-1.8189894035458565e-12,0.0,0.0,5.169878828456276e-24,340.00793478260863,70.0,0.0,255.0,0.0
38.400000000000404,35.7274340319405,51.27537181401424,1370.002069101669,6.915489132097719e-05,-2.2833804337096808e-05,0.0,-5.684341886080801e-13,0.0,3.63797880709192e-11,339.99913043478256,70.0,0.0,255.0,0.0
38.4500000000004,35.72743749950659,51.27537068059391,1370.0020685289055,6.915489126413377e-05,-2.2833804337096808e-05,1.8189894035458565e-12,0.0,0.0,5.169878828456276e-24,339.99032608695643,70.0,0.0,255.0,0.0
38.500000000000405,35.72744096707371,51.27536954717172,1370.0020679552108,6.915489132097719e-05,-2.2833804337096808e-05,0.0,1.1368683772161603e-12,0.0,-3.637978807091403e-11,339.98152173913036,70.0,0.0,255.0,0.0
38.55000000000041,35.72744443464189,51.27536841374768,1370.00206738431,6.91548913778206e-05,-2.2833804337096808e-05,-1.8189894035458565e-12,0.0,0.0,5.169878828456276e-24,339.9727173913043,70.0,0.0,255.0,0.0
38.600000000000406,35.72744790221108,51.2753672803218,1370.002066812478,6.915489132097719e-05,-2.2833804337096808e-05,0.0,-1.1368683772161603e-12,0.0,3.63797880709192e-11,339.9639130434782,70.0,0.0,255.0,0.0
38.650000000000404,35.727451369781306,51.275366146894065,1370.002066237852,6.915489126413377e-05,-2.2833804337096808e-05,1.8189894035458565e-12,0.0,0.0,5.169878828456276e-24,339.9551086956521,70.0,0.0,255.0,0.0
38.70000000000041,35.72745483735258,51.275365013464466,1370.0020656669512,6.915489132097719e-05,-2.2833804337096808e-05,0.0,5.684341886080801e-13,0.0,-3.637978807091403e-11,339.946304347826,70.0,0.0,255.0,0.0
38.75000000000041,35.72745830492487,51.27536388003304,1370.0020650951192,6.915489132097719e-05,-2.2833804337096808e-05,-1.8189894035458565e-12,-5.684341886080801e-13,-1.1368683772161603e-12,5.169878828456276e-24,339.93749999999994,70.0,0.0,255.0,0.0
38.80000000000041,35.72746177249821,51.27536274659973,1370.0020645223558,6.915489126413377e-05,-2.2833804450783646e-05,0.0,-5.684341886080801e-13,0.0,3.63797880709192e-11,339.9286956521739,70.0,0.0,255.0,0.0
38.850000000000406,35.727465240072576,51.27536161316459,1370.0020639505237,6.915489126413377e-05,-2.2833804337096808e-05,1.8189894035458565e-12,0.0,2.2737367544323206e-12,5.169878828456276e-24,339.91989130434774,70.0,0.0,255.0,0.0
38.90000000000041,35.727468707647986,51.27536047972761,1370.0020633777604,6.915489126413377e-05,-2.283380422340997e-05,0.0,1.1368683772161603e-12,-1.1368683772161603e-12,-3.637978807091403e-11,339.9110869565217,70.0,0.0,255.0,0.0
38.950000000000415,35.72747217522443,51.27535934628875,1370.0020628068596,6.91548913778206e-05,-2.2833804450783646e-05,-1.8189894035458565e-12,0.0,-1.1368683772161603e-12,5.169878828456276e-24,339.9022826086956,70.0,0.0,255.0,0.0
39.00000000000041,35.72747564280189,51.27535821284805,1370.0020622359589,6.915489126413377e-05,-2.2833804337096808e-05,0.0,-1.1368683772161603e-12,1.1368683772161603e-12,3.63797880709192e-11,339.8934782608695,70.0,0.0,255.0,0.0
39.05000000000041,35.72747911038039,51.275357079405495,1370.0020616641268,6.915489126413377e-05,-2.2833804337096808e-05,1.8189894035458565e-12,5.684341886080801e-13,-1.1368683772161603e-12,5.169878828456276e-24,339.8846739130434,70.0,0.0,255.0,0.0
39.10000000000041,35.72748257795993,51.27535594596109,1370.002061090432,6.915489132097719e-05,-2.2833804450783646e-05,0.0,5.684341886080801e-13,0.0,-3.637978807091403e-11,339.87586956521733,70.0,0.0,255.0,0.0
39.15000000000042,35.7274860455405,51.275354812514834,1370.0020605204627,6.915489132097719e-05,-2.2833804337096808e-05,-1.8189894035458565e-12,0.0,1.1368683772161603e-12,5.169878828456276e-24,339.86706521739126,70.0,0.0,255.0,0.0
39.200000000000415,35.72748951312211,51.27535367906671,1370.0020599476993,6.915489132097719e-05,-2.2833804337096808e-05,0.0,-5.684341886080801e-13,0.0,3.63797880709192e-11,339.85826086956513,70.0,0.0,255.0,0.0
39.25000000000041,35.72749298070473,51.27535254561676,1370.0020593767986,6.915489126413377e-05,-2.2833804337096808e-05,1.8189894035458565e-12,-5.684341886080801e-13,0.0,5.169878828456276e-24,339.84945652173906,70.0,0.0,255.0,0.0
39.300000000000416,35.727496448288406,51.27535141216493,1370.0020588058978,6.915489126413377e-05,-2.2833804337096808e-05,0.0,1.1368683772161603e-12,0.0,-3.637978807091403e-11,339.840652173913,70.0,0.0,255.0,0.0
39.35000000000042,35.72749991587311,51.275350278711265,1370.0020582331344,6.91548913778206e-05,-2.2833804337096808e-05,-1.8189894035458565e-12,0.0,0.0,5.169878828456276e-24,339.8318478260869,70.0,0.0,255.0,0.0
39.40000000000042,35.727503383458824,51.27534914525574,1370.0020576640964,6.915489126413377e-05,-2.2833804337096808e-05,0.0,-1.1368683772161603e-12,0.0,3.63797880709192e-11,339.8230434782608,70.0,0.0,255.0,0.0
39.450000000000415,35.7275068510456,51.27534801179836,1370.0020570904016,6.915489126413377e-05,-2.2833804337096808e-05,1.8189894035458565e-12,5.684341886080801e-13,0.0,5.169878828456276e-24,339.8142391304347,70.0,0.0,255.0,0.0
39.50000000000042,35.72751031863339,51.275346878339114,1370.0020565204322,6.915489132097719e-05,-2.2833804337096808e-05,0.0,5.684341886080801e-13,0.0,-3.637978807091403e-11,339.80543478260864,70.0,0.0,255.0,0.0
39.55000000000042,35.72751378622221,51.27534574487803,1370.0020559476689,6.915489132097719e-05,-2.2833804337096808e-05,-1.8189894035458565e-12,0.0,0.0,5.169878828456276e-24,339.7966304347825,70.0,0.0,255.0,0.0
39.60000000000042,35.72751725381207,51.275344611415086,1370.0020553786308,6.915489132097719e-05,-2.2833804337096808e-05,0.0,-5.684341886080801e-13,0.0,3.63797880709192e-11,339.78782608695644,70.0,0.0,255.0,0.0
39.65000000000042,35.727520721402946,51.27534347795029,1370.00205480773,6.915489126413377e-05,-2.2833804337096808e-05,1.8189894035458565e-12,-5.684341886080801e-13,0.0,5.169878828456276e-24,339.77902173913037,70.0,0.0,255.0,0.0
39.70000000000042,35.72752418899487,51.27534234448363,1370.0020542349666,6.915489126413377e-05,-2.2833804337096808e-05,0.0,1.1368683772161603e-12,-1.1368683772161603e-12,-3.637978807091403e-11,339.7702173913043,70.0,0.0,255.0,0.0
39.750000000000426,35.72752765658782,51.27534121101513,1370.0020536649972,6.91548913778206e-05,-2.2833804450783646e-05,-1.8189894035458565e-12,0.0,0.0,5.169878828456276e-24,339.76141304347817,70.0,0.0,255.0,0.0
39.80000000000042,35.7275311241818,51.27534007754476,1370.0020530931652,6.915489126413377e-05,-2.2833804337096808e-05,0.0,-1.1368683772161603e-12,2.2737367544323206e-12,3.63797880709192e-11,339.7526086956521,70.0,0.0,255.0,0.0
39.85000000000042,35.72753459177679,51.27533894407255,1370.0020525231957,6.915489126413377e-05,-2.283380422340997e-05,1.8189894035458565e-12,5.684341886080801e-13,-1.1368683772161603e-12,5.169878828456276e-24,339.743804347826,70.0,0.0,255.0,0.0
39.900000000000425,35.72753805937282,51.27533781059847,1370.0020519513637,6.915489132097719e-05,-2.2833804450783646e-05,0.0,5.684341886080801e-13,-1.1368683772161603e-12,-3.637978807091403e-11,339.73499999999996,70.0,0.0,255.0,0.0
39.95000000000043,35.72754152696989,51.27533667712253,1370.0020513813943,6.915489132097719e-05,-2.2833804337096808e-05,-1.8189894035458565e-12,0.0,1.1368683772161603e-12,5.169878828456276e-24,339.7261956521738,70.0,0.0,255.0,0.0
40.000000000000426,35.72754499456797,51.27533554364475,1370.0020508104935,6.915489132097719e-05,-2.2833804337096808e-05,0.0,-5.684341886080801e-13,-1.1368683772161603e-12,3.63797880709192e-11,339.71739130434776,70.0,0.0,255.0,0.0
40.05000000000042,35.72754846216709,51.2753344101651,1370.0020502395928,6.915489126413377e-05,-2.2833804450783646e-05,1.8189894035458565e-12,-5.684341886080801e-13,1.1368683772161603e-12,5.169878828456276e-24,339.7085869565217,70.0,0.0,255.0,0.0
40.10000000000043,35.727551929767245,51.2753332766836,1370.0020496705547,6.915489126413377e-05,-2.283380422340997e-05,0.0,0.0,1.1368683772161603e-12,-3.637978807091403e-11,339.69978260869556,70.0,0.0,255.0,0.0
40.15000000000043,35.72755539736842,51.275332143200245,1370.002049099654,6.915489126413377e-05,-2.2833804337096808e-05,-1.8189894035458565e-12,0.0,-2.2737367544323206e-12,5.169878828456276e-24,339.6909782608695,70.0,0.0,255.0,0.0
40.20000000000043,35.72755886497062,51.275331009715025,1370.0020485287532,6.915489126413377e-05,-2.2833804450783646e-05,0.0,5.684341886080801e-13,0.0,3.63797880709192e-11,339.6821739130434,70.0,0.0,255.0,0.0
